time,timestamp,recordtime,lat,long,alt,speed,course,verticalAccuracy,horizontalAccuracy,locTimeStamp,accelerationX,accelerationY,accelerationZ,HeadingX,HeadingY,HeadingZ,TrueHeading,MagneticHeading,HeadingAccuracy,en0,pdp_ip0,DeviceOrientation,Event
2013-11-12 15:18:00.545,1,0.1,52.17018,4.457796,0,4.952755,103.4878,9,5,1384265630,-0.1672211,-0.9087677,-0.5264435,0.6575165,-32.72972,-10.8371,192.789,192.4453,25,0.0.0.0,10.139.171.151,1,0
2013-11-12 15:18:00.679,2,0.2,52.17018,4.457796,0,4.952755,103.4878,9,5,1384265630,-0.2436066,-0.5975952,-0.3250427,-0.8295898,-32.67488,-9.286705,193.2264,192.8826,25,0.0.0.0,10.139.171.151,1,0
2013-11-12 15:18:00.775,3,0.3,52.17018,4.457796,0,4.952755,103.4878,9,5,1384265630,-0.234436,-0.9305573,-0.272522,-1.655762,-33.16847,-9.68866,193.0739,192.7302,25,0.0.0.0,10.139.171.151,1,0
2013-11-12 15:18:00.899,4,0.4,52.17018,4.457796,0,4.952755,103.4878,9,5,1384265630,-0.1140442,-0.8293762,-0.2742767,-1.820999,-31.35863,-8.597649,190.5382,190.1945,25,0.0.0.0,10.139.171.151,1,0
2013-11-12 15:18:01.083,5,0.5,52.17018,4.457796,0,4.952755,103.4878,9,5,1384265630,-0.1267242,-0.6669464,-0.1734924,-2.041309,-31.57801,-9.057022,189.4807,189.137,25,0.0.0.0,10.139.171.151,1,0
2013-11-12 15:18:01.170,6,0.6,52.17018,4.457796,0,4.952755,103.4878,9,5,1384265630,-0.17659,-0.6381378,-0.01216125,-1.986233,-32.0716,-8.425377,189.2038,188.86,25,0.0.0.0,10.139.171.151,1,0
2013-11-12 15:18:01.293,7,0.7,52.17017,4.457828,0,4.63705,102.0116,9,5,1384265631,-0.1912231,-0.7806549,-1.113922,-1.435452,-31.96191,-8.655067,189.3852,189.0414,25,0.0.0.0,10.139.171.151,1,0
2013-11-12 15:18:01.386,8,0.8,52.17017,4.457828,0,4.63705,102.0116,9,5,1384265631,-0.5443115,-2.001465,-1.699203,-1.876076,-33.16847,-7.73632,189.6163,189.2725,25,0.0.0.0,10.139.171.151,1,0
2013-11-12 15:18:01.501,9,0.9,52.17017,4.457828,0,4.63705,102.0116,9,5,1384265631,-0.08946228,-0.3848114,-0.7747803,-1.765919,-32.51034,-8.080849,189.7782,189.4344,25,0.0.0.0,10.139.171.151,1,0
2013-11-12 15:18:01.608,10,1,52.17017,4.457828,0,4.63705,102.0116,9,5,1384265631,-0.09370422,-1.240311,-1.045166,-2.3167,-32.0716,-9.114441,190.0143,189.6705,25,0.0.0.0,10.139.171.151,1,0
2013-11-12 15:18:01.723,11,1.1,52.17017,4.457828,0,4.63705,102.0116,9,5,1384265631,-0.1297913,-1.554703,-0.5469971,-0.8295898,-32.89425,-8.712486,190.3155,189.9718,25,0.0.0.0,10.139.171.151,4,0
2013-11-12 15:18:01.856,12,1.2,52.17017,4.457828,0,4.63705,102.0116,9,5,1384265631,-0.3135376,-0.2307892,-0.7721863,-1.10498,-32.83941,-8.080849,190.5391,190.1953,25,0.0.0.0,10.139.171.151,4,0
2013-11-12 15:18:02.073,13,1.3,52.17017,4.457828,0,4.63705,102.0116,9,5,1384265631,-0.08638,-0.9897156,-0.5463409,-2.426857,-33.49754,-8.769913,190.7933,190.4496,25,0.0.0.0,10.139.171.151,1,0
2013-11-12 15:18:02.199,14,1.4,52.17017,4.457828,0,4.63705,102.0116,9,5,1384265631,0.006988525,-0.4967194,-0.7254333,-2.812405,-32.67488,-8.138268,190.8666,190.5229,25,0.0.0.0,10.139.171.151,1,0
2013-11-12 15:18:02.350,15,1.5,52.17017,4.457828,0,4.63705,102.0116,9,5,1384265631,-0.1208801,-0.6877899,-0.5200195,-2.481934,-31.57801,-9.286705,191.1723,190.8286,25,0.0.0.0,10.139.171.151,1,0
2013-11-12 15:18:02.478,16,1.6,52.17017,4.457838,0,0.3656072,98.62044,9.237291,10,1384265632,-0.1146851,-0.9980927,-0.3458862,-2.757324,-32.51034,-8.425377,191.2857,190.942,25,0.0.0.0,10.139.171.151,1,0
2013-11-12 15:18:02.630,17,1.7,52.17017,4.457838,0,0.3656072,98.62044,9.237291,10,1384265632,-0.1682281,-0.6564178,-0.5076447,-1.765919,-31.96191,-9.229286,191.5471,191.2034,25,0.0.0.0,10.139.171.151,1,0
2013-11-12 15:18:02.762,18,1.8,52.17017,4.457838,0,0.3656072,98.62044,9.237291,10,1384265632,-0.09492493,-0.8093262,-0.3949738,-3.80381,-33.11362,-5.382019,191.5786,191.2349,25,0.0.0.0,10.139.171.151,1,0
2013-11-12 15:18:02.863,19,1.9,52.17017,4.457838,0,0.3656072,98.62044,9.237291,10,1384265632,-0.04394531,-0.7796173,-0.6723175,-1.876076,-32.9491,-5.209755,191.5168,191.1731,25,0.0.0.0,10.139.171.151,1,0
2013-11-12 15:18:03.062,20,2,52.17017,4.457838,0,0.3656072,98.62044,9.237291,10,1384265632,-0.1539612,-0.9733124,-0.6109161,-2.206543,-31.85222,-4.865227,191.4892,191.1455,25,0.0.0.0,10.139.171.151,1,0
2013-11-12 15:18:03.174,21,2.1,52.17017,4.457838,0,0.3656072,98.62044,9.237291,10,1384265632,-0.05929565,-0.7585297,-0.5351562,-2.702248,-32.23614,-5.152336,191.375,191.0313,25,0.0.0.0,10.139.171.151,1,0
2013-11-12 15:18:03.270,22,2.2,52.17017,4.457838,0,0.3656072,98.62044,9.237291,10,1384265632,-0.1459808,-1.004074,-0.7539062,-2.09639,-31.96192,-5.783974,191.4218,191.0781,25,0.0.0.0,10.139.171.151,1,0
2013-11-12 15:18:03.390,23,2.3,52.17017,4.457838,0,0.3656072,98.62044,9.237291,10,1384265632,-0.2785339,-0.9083862,-0.7303467,-2.702248,-32.01676,-5.152336,191.4312,191.0875,25,0.0.0.0,10.139.171.151,1,0
2013-11-12 15:18:03.467,24,2.4,52.17017,4.457838,0,0.3656072,98.62044,9.237291,10,1384265632,-0.1493683,-0.8021088,-0.7982635,-2.09639,-32.18129,-5.209755,191.4415,191.0977,25,0.0.0.0,10.139.171.151,1,0
2013-11-12 15:18:03.585,25,2.5,52.17017,4.457838,0,0,98.62044,9.606804,10,1384265633,-0.3415833,-0.6422882,-0.5141754,-3.142872,-32.34582,-5.61171,191.4226,191.0789,25,0.0.0.0,10.139.171.151,1,0
2013-11-12 15:18:03.696,26,2.6,52.17017,4.457838,0,0,98.62044,9.606804,10,1384265633,-0.1130371,-0.736969,-0.537384,-3.253029,-32.78457,-4.922646,191.3325,190.9888,25,0.0.0.0,10.139.171.151,1,0
2013-11-12 15:18:03.840,27,2.7,52.17017,4.457838,0,0,98.62044,9.606804,10,1384265633,-0.2260284,-0.7323456,-0.3830414,-2.977638,-33.05879,-5.209755,191.1804,190.8367,25,0.0.0.0,10.139.171.151,1,0
2013-11-12 15:18:04.077,28,2.8,52.17017,4.457838,0,0,98.62044,9.606804,10,1384265633,-0.1680145,-1.013626,-0.669281,-2.592091,-33.33301,-4.692955,191.135,190.7912,25,0.0.0.0,10.139.171.151,1,0
2013-11-12 15:18:04.232,29,2.9,52.17017,4.457838,0,0,98.62044,9.606804,10,1384265633,-0.1495667,-0.7550659,-0.5666962,-2.151466,-32.01678,-4.578117,191.0699,190.7262,25,0.0.0.0,10.139.171.151,1,0
2013-11-12 15:18:04.352,30,3,52.17017,4.457838,0,0,98.62044,9.606804,10,1384265633,-0.18396,-1.055771,-0.7179108,-2.592091,-32.67489,-5.037491,191.0233,190.6796,25,0.0.0.0,10.139.171.151,1,0
2013-11-12 15:18:04.483,31,3.1,52.17017,4.457838,0,0,98.62044,9.606804,10,1384265633,-0.2202454,-0.8754578,-0.744812,-3.032715,-32.45553,-5.037491,190.0173,189.6736,25,0.0.0.0,10.139.171.151,1,0
2013-11-12 15:18:04.607,32,3.2,52.17017,4.457838,0,0,98.62044,9.606804,10,1384265633,-0.25914,-0.9841919,-0.6405029,-2.3167,-31.41349,-4.635536,192.3492,192.0054,25,0.0.0.0,10.139.171.151,1,0
2013-11-12 15:18:04.717,33,3.3,52.17018,4.457842,0,0.323213,37.87631,9.780458,10,1384265634,-0.1750793,-0.7932129,-0.6260681,-2.592091,-31.90708,-5.037491,191.981,191.6373,25,0.0.0.0,10.139.171.151,1,0
2013-11-12 15:18:05.286,34,3.4,52.17018,4.457842,0,0.323213,37.87631,9.780458,10,1384265634,-0.09858704,-0.9495544,-0.7811432,-2.537014,-32.29098,-4.176163,191.9516,191.6079,25,0.0.0.0,10.139.171.151,1,0
2013-11-12 15:18:05.545,35,3.5,52.17018,4.457842,0,0.323213,37.87631,9.780458,10,1384265634,-0.2537384,-0.8800201,-0.6719208,-3.638577,-32.72974,-4.635536,191.8004,191.4567,25,0.0.0.0,10.139.171.151,1,0
2013-11-12 15:18:06.327,36,3.6,52.17018,4.457842,0,0.323213,37.87631,9.780458,10,1384265634,-0.1323547,-0.8498535,-0.7464905,-2.041309,-32.23614,-7.793739,196.4065,196.0627,25,0.0.0.0,10.139.171.151,1,0
2013-11-12 15:18:07.209,37,3.7,52.17018,4.457842,0,0,37.87631,10.05421,10,1384265635,-0.2471619,-1.00705,-0.6559753,-2.261623,-32.67488,-7.793739,196.2552,195.9115,25,0.0.0.0,10.139.171.151,1,0
2013-11-12 15:18:07.793,38,3.8,52.17018,4.457842,0,0,37.87631,10.05421,10,1384265635,-0.2527924,-0.7091217,-0.4698486,-0.9948273,-32.9491,-8.540222,196.0953,195.7516,25,0.0.0.0,10.139.171.151,1,0
2013-11-12 15:18:08.133,39,3.9,52.17018,4.457842,0,0,37.87631,10.05421,10,1384265635,-0.1604004,-0.8223419,-0.5743408,-0.7745132,-32.72972,-9.573814,196.2045,195.8608,25,0.0.0.0,10.139.171.151,1,0
2013-11-12 15:18:08.677,40,4,52.17018,4.457842,0,0,37.87631,10.32235,10,1384265636,-0.08474731,-1.036819,-0.6737518,-1.10498,-33.60722,-7.966003,195.9409,195.5972,25,0.0.0.0,10.139.171.151,1,0
2013-11-12 15:18:09.211,41,4.1,52.17018,4.457842,0,0,37.87631,10.32235,10,1384265636,-0.2193604,-0.8828278,-0.6922302,-0.05849838,-33.99113,-9.631241,196.0434,195.6997,25,0.0.0.0,10.139.171.151,1,0
2013-11-12 15:18:10.367,42,4.2,52.17018,4.457842,0,0,37.87631,10.32235,10,1384265636,0.0120697,-0.7244263,-0.7140961,-2.537014,-33.38784,-8.425377,195.8849,195.5412,25,0.0.0.0,10.139.171.151,3,0
2013-11-12 15:18:11.212,43,4.3,52.17018,4.457842,0,0,37.87631,10.56684,10,1384265637,-0.1934967,-0.969635,-0.7249908,-1.986233,-32.40066,-9.458977,198.1947,197.851,25,0.0.0.0,10.139.171.151,3,0
2013-11-12 15:18:11.691,44,4.4,52.17018,4.457842,0,0,37.87631,10.56684,10,1384265637,-0.1261902,-0.6744385,-0.4597168,-2.812405,-32.12644,-7.908585,195.2878,194.9441,25,0.0.0.0,10.139.171.151,3,0
2013-11-12 15:18:12.050,45,4.5,52.17018,4.457842,0,0,37.87631,10.56684,10,1384265637,-0.05435181,-0.7841949,-0.6606903,-3.253029,-32.01676,-7.793739,196.1337,195.7899,25,0.0.0.0,10.139.171.151,3,0
2013-11-12 15:18:12.332,46,4.6,52.17018,4.457842,0,0,37.87631,10.56684,10,1384265637,-0.07833862,-0.8300323,-0.5963898,-3.693653,-31.46833,-6.645302,197.0438,196.7001,25,0.0.0.0,10.139.171.151,3,0
2013-11-12 15:18:12.740,47,4.7,52.17018,4.457842,0,0,37.87631,10.56684,10,1384265637,-0.06233215,-0.9234009,-0.7275085,-2.977638,-30.42631,-5.898819,197.6981,197.3544,25,0.0.0.0,10.139.171.151,3,0
2013-11-12 15:18:13.103,48,4.8,52.17018,4.457842,0,0,37.87631,10.69585,10,1384265638,-0.2131042,-0.588028,-0.3882294,-1.986233,-31.19412,-7.162102,194.8291,194.4854,25,0.0.0.0,10.139.171.151,3,0
2013-11-12 15:18:13.352,49,4.9,52.17018,4.457842,0,0,37.87631,10.69585,10,1384265638,-0.09442139,-0.848526,-0.7307587,-1.270218,-31.46834,-6.98983,197.7245,197.3808,25,0.0.0.0,10.139.171.151,3,0
2013-11-12 15:18:13.634,50,5,52.17018,4.457842,0,0,37.87631,10.69585,10,1384265638,-0.05273438,-0.6351776,-0.4974976,-1.545609,-32.83943,-7.621475,196.4703,196.1266,25,0.0.0.0,10.139.171.151,3,0
2013-11-12 15:18:14.002,51,5.1,52.17018,4.457842,0,0,37.87631,10.69585,10,1384265638,-0.1508026,-0.7460632,-0.5472412,-1.820999,-32.23615,-8.253113,196.2349,195.8912,25,0.0.0.0,10.139.171.151,3,0
2013-11-12 15:18:14.229,52,5.2,52.17018,4.457842,0,0,37.87631,10.69585,10,1384265638,-0.2447815,-0.9136963,-0.5948639,-0.8295898,-33.11364,-8.827332,196.2433,195.8996,25,0.0.0.0,10.139.171.151,3,0
2013-11-12 15:18:14.473,53,5.3,52.17018,4.457842,0,0,37.87631,10.69585,10,1384265638,-0.2493744,-0.7130737,-0.5739899,-1.435452,-33.38787,-8.884758,196.3035,195.9597,25,0.0.0.0,10.139.171.151,3,0
2013-11-12 15:18:14.694,54,5.4,52.17018,4.457842,0,0,37.87631,10.69585,10,1384265638,-0.2364502,-0.9311066,-0.6639099,-1.600685,-32.89427,-8.597649,196.0522,195.7085,25,0.0.0.0,10.139.171.151,3,0
2013-11-12 15:18:15.141,55,5.5,52.17018,4.457842,0,0,37.87631,10.8068,10,1384265639,-0.2889557,-0.9745789,-0.6172791,-1.490528,-32.89427,-8.827332,195.9609,195.6172,25,0.0.0.0,10.139.171.151,3,0
2013-11-12 15:18:15.299,56,5.6,52.17018,4.457842,0,0,37.87631,10.8068,10,1384265639,-0.1955872,-0.7319489,-0.5961456,-0.7745132,-33.05879,-9.114441,195.9488,195.6051,25,0.0.0.0,10.139.171.151,3,0
2013-11-12 15:18:15.428,57,5.7,52.17018,4.457842,0,0,37.87631,10.8068,10,1384265639,-0.2486572,-0.8938599,-0.6786499,-0.4991226,-33.11364,-8.367958,195.9754,195.6317,25,0.0.0.0,10.139.171.151,3,0
2013-11-12 15:18:15.558,58,5.8,52.17018,4.457842,0,0,37.87631,10.8068,10,1384265639,-0.1934204,-0.7438049,-0.3896942,-1.049904,-33.99113,-8.138268,195.8997,195.556,25,0.0.0.0,10.139.171.151,3,0
2013-11-12 15:18:15.699,59,5.9,52.17018,4.457842,0,0,37.87631,10.8068,10,1384265639,-0.09159851,-0.6299896,-0.5482941,-1.380371,-32.89426,-8.712486,195.8006,195.4568,25,0.0.0.0,10.139.171.151,3,0
2013-11-12 15:18:15.999,60,6,52.17018,4.457842,0,0,37.87631,10.8068,10,1384265639,-0.04098511,-1.151627,-0.7385254,-1.435452,-33.38786,-8.425377,195.6972,195.3535,25,0.0.0.0,10.139.171.151,3,0
2013-11-12 15:18:16.137,61,6.1,52.17018,4.457842,0,0,37.87631,10.8068,10,1384265639,-0.1506195,-0.7651215,-0.4926758,-0.6092796,-32.34582,-9.057022,195.6837,195.34,25,0.0.0.0,10.139.171.151,3,0
2013-11-12 15:18:16.307,62,6.2,52.17018,4.457842,0,0,37.87631,10.92072,10,1384265640,0.04748535,-0.8480225,-0.5783081,-1.215137,-33.60723,-8.195694,195.6152,195.2715,25,0.0.0.0,10.139.171.151,3,0
2013-11-12 15:18:16.494,63,6.3,52.17018,4.457842,0,0,37.87631,10.92072,10,1384265640,-0.07272339,-0.7356262,-0.625824,-1.270218,-33.22333,-8.482803,195.6899,195.3462,25,0.0.0.0,10.139.171.151,3,0
2013-11-12 15:18:16.634,64,6.4,52.17018,4.457842,0,0,37.87631,10.92072,10,1384265640,-0.07272339,-0.7356262,-0.625824,-1.10498,-33.16848,-8.884758,195.7316,195.3878,25,0.0.0.0,10.139.171.151,3,0
2013-11-12 15:18:16.734,65,6.5,52.17018,4.457842,0,0,37.87631,10.92072,10,1384265640,-0.2243958,-0.8326416,-0.6660767,-1.215137,-32.51037,-8.884758,195.776,195.4322,25,0.0.0.0,10.139.171.151,3,0
2013-11-12 15:18:16.857,66,6.6,52.17018,4.457842,0,0,37.87631,10.92072,10,1384265640,-0.1842651,-0.8889465,-0.641449,-1.160061,-33.11365,-8.482803,195.795,195.4512,25,0.0.0.0,10.139.171.151,3,0
2013-11-12 15:18:17.072,67,6.7,52.17018,4.457842,0,0,37.87631,10.92072,10,1384265640,-0.1358948,-0.756012,-0.6415863,-0.9948273,-32.83943,-8.425377,195.8586,195.5149,25,0.0.0.0,10.139.171.151,3,0
2013-11-12 15:18:17.167,68,6.8,52.17018,4.457842,0,0,37.87631,10.92072,10,1384265640,-0.1598816,-0.8729248,-0.437912,-1.380371,-32.6749,-7.678894,195.8977,195.554,25,0.0.0.0,10.139.171.151,3,0
2013-11-12 15:18:17.281,69,6.9,52.17018,4.457842,0,0,37.87631,10.92072,10,1384265640,-0.2682953,-0.8782501,-0.6164703,-2.151466,-32.45553,-8.827332,195.9354,195.5916,25,0.0.0.0,10.139.171.151,3,0
2013-11-12 15:18:17.391,70,7,52.17018,4.457842,0,0,37.87631,10.92072,10,1384265640,-0.0537262,-0.7173157,-0.5021362,-1.710842,-32.12647,-9.516396,196.1141,195.7704,25,0.0.0.0,10.139.171.151,3,0
2013-11-12 15:18:17.469,71,7.1,52.17018,4.457842,0,0,37.87631,10.92072,10,1384265640,-0.1692352,-0.8711395,-0.4768677,-1.986233,-32.29101,-9.803505,196.3251,195.9814,25,0.0.0.0,10.139.171.151,3,0
2013-11-12 15:18:17.567,72,7.2,52.17018,4.457842,0,0,37.87631,10.92072,10,1384265640,-0.05644226,-1.492416,-1.721008,-2.867481,-32.51038,-8.310539,196.3192,195.9754,25,0.0.0.0,10.139.171.151,3,0
2013-11-12 15:18:17.732,73,7.3,52.17018,4.457842,0,0,37.87631,11.39689,10,1384265641,-0.2245636,-0.4509277,-1.68837,-2.481934,-31.57804,-8.482803,196.3023,195.9585,25,0.0.0.0,10.139.171.151,3,0
2013-11-12 15:18:17.874,74,7.4,52.17018,4.457842,0,0,37.87631,11.39689,10,1384265641,-1.095001,-1.303604,-0.9506073,-2.206543,-31.63288,-8.769913,196.3947,196.051,25,0.0.0.0,10.139.171.151,3,0
2013-11-12 15:18:18.104,75,7.5,52.17018,4.457842,0,0,37.87631,11.39689,10,1384265641,0.003860474,-0.9456635,0.09544373,-1.986233,-32.07163,-8.655067,196.3996,196.0559,25,0.0.0.0,10.139.171.151,3,0
2013-11-12 15:18:18.691,76,7.6,52.17018,4.457842,0,0,37.87631,11.39689,10,1384265641,-0.1935883,-0.1036377,-0.384552,-1.545609,-33.16851,-7.851158,196.7324,196.3887,25,0.0.0.0,10.139.171.151,5,0
2013-11-12 15:18:19.365,77,7.7,52.17018,4.457842,0,0,37.87631,11.39689,10,1384265641,0.1036224,-1.897095,-0.8304443,-1.765919,-32.29101,-7.966003,196.7319,196.3882,25,0.0.0.0,10.139.171.151,3,0
2013-11-12 15:18:19.679,78,7.8,52.17018,4.457842,0,0,37.87631,11.39689,10,1384265641,0.002655029,-0.4368286,-0.4880524,-1.435452,-32.72976,-8.655067,196.7089,196.3652,25,0.0.0.0,10.139.171.151,3,0
2013-11-12 15:18:20.050,79,7.9,52.17018,4.457842,0,0,37.87631,11.94589,10,1384265642,0.3237457,-0.2975769,-0.4842224,-2.261623,-31.7974,-8.827332,200.4101,200.0663,25,0.0.0.0,10.139.171.151,3,0
2013-11-12 15:18:20.666,80,8,52.17018,4.457842,0,0,37.87631,11.94589,10,1384265642,0.0901947,-0.8270569,-0.8712616,-0.9397469,-31.79739,-8.827332,199.6356,199.2918,25,145.118.83.22,10.139.171.151,3,0
2013-11-12 15:18:21.220,81,8.1,52.17018,4.457842,0,0,37.87631,12.5224,10,1384265643,0.0901947,-0.8270569,-0.8712616,0.3270493,-33.60723,-10.49257,198.8511,198.5074,25,145.118.83.22,10.139.171.151,3,0
2013-11-12 15:18:21.675,82,8.2,52.17018,4.457842,0,0,37.87631,12.5224,10,1384265643,0.0582428,-0.9319763,-0.4368896,0.1067352,-34.81379,-9.573814,192.1322,191.7885,25,145.118.83.22,10.139.171.151,3,0
2013-11-12 15:18:22.284,83,8.3,52.17018,4.457842,0,0,37.87631,12.5224,10,1384265643,0.0176239,-0.8093414,-0.4734039,-0.113575,-35.80097,-7.851158,192.0811,191.7374,25,145.118.83.22,10.139.171.151,3,0
2013-11-12 15:18:23.005,84,8.400001,52.17018,4.457842,0,0,37.87631,12.92062,10,1384265644,-0.04924011,-1.050339,-0.4691162,1.263378,-34.75895,-10.43514,192.5624,192.2187,25,145.118.83.22,10.139.171.151,5,0
2013-11-12 15:18:24.043,85,8.5,52.17018,4.457842,0,0,37.87631,12.92062,10,1384265644,-0.5240479,-0.9183502,-0.4255829,1.538769,-34.04599,-11.98553,190.3969,190.0532,25,145.118.83.22,10.139.171.151,3,0
2013-11-12 15:18:24.736,86,8.6,52.17018,4.457842,0,0,37.87631,12.92062,10,1384265644,-0.3092346,-0.9802399,-0.3106689,2.750486,-34.81379,-10.8371,194.3717,194.028,25,145.118.83.22,10.139.171.151,3,0
2013-11-12 15:18:25.032,87,8.7,52.17018,4.457842,0,0,37.87631,12.92062,10,1384265644,-0.2958832,-0.955307,-0.4430847,3.246189,-34.75894,-10.66483,194.347,194.0033,25,145.118.83.22,10.139.171.151,3,0
2013-11-12 15:18:25.447,88,8.8,52.17018,4.457842,0,0,37.87631,12.92062,10,1384265644,-0.2447815,-0.8110199,-0.2611847,2.254784,-34.97832,-10.20546,190.4469,190.1032,25,145.118.83.22,10.139.171.151,3,0
2013-11-12 15:18:26.003,89,8.900001,52.17018,4.457842,0,0,37.87631,13.14525,10,1384265645,-0.3512573,-0.6306152,-0.5395508,1.924314,-34.64926,-10.3203,191.9351,191.5914,25,145.118.83.22,10.139.171.151,5,0
2013-11-12 15:18:26.545,90,9,52.17018,4.457842,0,0,37.87631,13.14525,10,1384265645,-0.2803192,-1.166397,-0.5184174,0.6024399,-34.42989,-9.171867,192.587,192.2433,25,145.118.83.22,10.139.171.151,3,0
2013-11-12 15:18:27.053,91,9.1,52.17018,4.457842,0,0,37.87631,13.14525,10,1384265645,-0.1710968,-0.734787,-0.5337219,-0.333889,-32.51035,-8.540222,192.6286,192.2849,25,145.118.83.22,10.139.171.151,3,0
2013-11-12 15:18:27.411,92,9.2,52.17018,4.457842,0,0,37.87631,13.14525,10,1384265645,-0.2562408,-0.8321381,-0.5708008,-0.6092796,-33.4427,-7.564049,195.4445,195.1008,25,145.118.83.22,10.139.171.151,3,0
2013-11-12 15:18:27.820,93,9.3,52.17018,4.457842,0,0,37.87631,13.14525,10,1384265645,-0.123642,-0.8663025,-0.4913025,-0.6643562,-33.16848,-8.999596,195.1392,194.7955,25,145.118.83.22,10.139.171.151,5,0
2013-11-12 15:18:28.251,94,9.400001,52.17018,4.457858,0,0.3487085,15.63966,13.14403,10,1384265646,-0.1930084,-0.6567841,-0.4931183,1.428612,-33.16848,-7.851158,200.4359,200.0921,25,145.118.83.22,10.139.171.151,3,0
2013-11-12 15:18:28.493,95,9.5,52.17018,4.457858,0,0.3487085,15.63966,13.14403,10,1384265646,-0.2473145,-1.20105,-0.4948273,0.9879875,-33.60723,-7.162102,200.4413,200.0975,25,145.118.83.22,10.139.171.151,5,0
2013-11-12 15:18:28.647,96,9.6,52.17018,4.457858,0,0.3487085,15.63966,13.14403,10,1384265646,-0.1678009,-0.9973602,-0.3811493,0.9879875,-33.16848,-7.851158,200.413,200.0693,25,145.118.83.22,10.139.171.151,5,0
2013-11-12 15:18:28.760,97,9.7,52.17018,4.457858,0,0.3487085,15.63966,13.14403,10,1384265646,-0.1563873,-0.4097748,-1.199448,2.08955,-32.72973,-7.50663,200.5796,200.2359,25,145.118.83.22,10.139.171.151,3,0
2013-11-12 15:18:28.875,98,9.8,52.17018,4.457858,0,0.3487085,15.63966,13.14403,10,1384265646,-0.4198608,-0.5007935,-1.360916,1.318455,-33.16848,-7.162102,200.6075,200.2638,25,145.118.83.22,10.139.171.151,3,0
2013-11-12 15:18:29.526,99,9.900001,52.17018,4.457858,2.559277,0,15.63966,13.46738,10,1384265647,-0.447052,-0.4364014,-1.976486,2.309862,-33.71692,-7.966003,201.3035,200.9597,25,145.118.83.22,10.139.171.151,3,0
2013-11-12 15:18:30.225,100,10,52.17018,4.457858,2.559277,0,15.63966,13.46738,10,1384265647,0.1035004,-0.4482574,-0.4487,-0.7745132,-33.93629,-9.229286,201.0149,200.6712,25,145.118.83.22,10.139.171.151,3,0
2013-11-12 15:18:30.794,101,10.1,52.17018,4.457858,2.559277,0,15.63966,13.46738,10,1384265647,0.1728973,-0.9604034,-0.6271973,-0.8295898,-33.00394,-8.942177,199.7859,199.4422,25,145.118.83.22,10.139.171.151,5,0
2013-11-12 15:18:31.254,102,10.2,52.17018,4.457858,1.055466,0,15.63966,13.65618,10,1384265648,-0.05197144,-0.8301697,-0.1163177,-1.710842,-32.67487,-9.746086,199.3333,198.9895,25,145.118.83.22,10.139.171.151,3,0
2013-11-12 15:18:31.529,103,10.3,52.17018,4.457858,1.055466,0,15.63966,13.65618,10,1384265648,0.08872986,-0.7432404,0.0796814,-0.8295898,-33.77174,-9.746086,199.2448,198.9011,25,145.118.83.22,10.139.171.151,3,0
2013-11-12 15:18:31.753,104,10.4,52.17018,4.457858,1.055466,0,15.63966,13.65618,10,1384265648,-0.1999664,-0.8925323,-0.09725952,-0.7194366,-32.3458,-9.975769,199.2486,198.9049,25,145.118.83.22,10.139.171.151,3,0
2013-11-12 15:18:32.054,105,10.5,52.17018,4.457858,1.055466,0,15.63966,13.65618,10,1384265648,-0.2367249,-0.9120483,-0.2833099,-0.9397469,-33.333,-8.597649,199.2775,198.9338,25,145.118.83.22,10.139.171.151,3,0
2013-11-12 15:18:32.293,106,10.6,52.17018,4.457858,1.055466,0,15.63966,13.65618,10,1384265648,-0.1705322,-0.7854767,-0.4079895,-0.3889656,-33.2233,-9.40155,199.0804,198.7367,25,145.118.83.22,10.139.171.151,3,0
2013-11-12 15:18:32.424,107,10.7,52.17018,4.457858,1.055466,0,15.63966,13.65618,10,1384265648,-0.2331696,-0.7293854,-0.5037842,-0.9948273,-33.27815,-8.655067,199.0347,198.6909,25,145.118.83.22,10.139.171.151,3,0
2013-11-12 15:18:32.595,108,10.8,52.17018,4.457858,1.055466,0,15.63966,13.65618,10,1384265648,-0.2746124,-0.8564148,-0.5932007,-0.5541992,-33.38784,-9.573814,198.8891,198.5454,25,145.118.83.22,10.139.171.151,3,0
2013-11-12 15:18:32.716,109,10.9,52.17018,4.457858,1.055466,0,15.63966,13.65618,10,1384265648,-0.1648712,-0.7154236,-0.5376282,-0.6092796,-33.44268,-9.057022,198.8843,198.5405,25,145.118.83.22,10.139.171.151,3,0
2013-11-12 15:18:32.857,110,11,52.17018,4.457858,1.055466,0,15.63966,13.65618,10,1384265648,-0.01399231,-0.765274,-0.4239807,-0.9397469,-33.44268,-8.712486,198.7056,198.3619,25,145.118.83.22,10.139.171.151,3,0
2013-11-12 15:18:33.066,111,11.1,52.17018,4.457858,0,0,15.63966,13.77381,10,1384265649,-0.03121948,-0.8712006,-0.5045776,-0.6092796,-33.77175,-8.712486,198.7323,198.3886,25,145.118.83.22,10.139.171.151,3,0
2013-11-12 15:18:33.243,112,11.2,52.17018,4.457858,0,0,15.63966,13.77381,10,1384265649,-0.04786682,-0.8447418,-0.532959,-0.9397469,-33.66206,-9.860924,198.6436,198.2999,25,145.118.83.22,10.139.171.151,3,0
2013-11-12 15:18:33.366,113,11.3,52.17018,4.457858,0,0,15.63966,13.77381,10,1384265649,-0.004562378,-0.8279114,-0.52211,-0.8846703,-34.5944,-9.114441,198.6219,198.2782,25,145.118.83.22,10.139.171.151,3,0
2013-11-12 15:18:33.703,114,11.4,52.17018,4.457858,0,0,15.63966,13.77381,10,1384265649,-0.1327362,-0.8706665,-0.5604706,-1.490528,-33.33299,-8.712486,198.4053,198.0615,25,145.118.83.22,10.139.171.151,3,0
2013-11-12 15:18:33.873,115,11.5,52.17018,4.457858,0,0,15.63966,13.77381,10,1384265649,-0.15448,-0.903183,-0.6403046,-0.223732,-33.38784,-7.73632,198.3301,197.9864,25,145.118.83.22,10.139.171.151,3,0
2013-11-12 15:18:34.185,116,11.6,52.17018,4.457858,0,0,15.63966,13.77381,10,1384265649,-0.116684,-0.9342651,-0.6410522,-1.600685,-33.88144,-8.138268,197.9788,197.6351,25,145.118.83.22,10.139.171.151,3,0
2013-11-12 15:18:34.337,117,11.7,52.17018,4.457858,0,0,15.63966,13.77381,10,1384265649,-0.09843445,-0.7976379,-0.5157471,-0.7745132,-34.92347,-9.114441,197.8948,197.551,25,145.118.83.22,10.139.171.151,3,0
2013-11-12 15:18:34.509,118,11.8,52.17018,4.457858,0,0,15.63966,13.77381,10,1384265649,-0.09489441,-0.6991577,-0.5315552,-1.435452,-33.93628,-9.114441,197.7068,197.3631,25,145.118.83.22,10.139.171.151,3,0
2013-11-12 15:18:34.734,119,11.9,52.17018,4.457858,0,0,15.63966,13.77381,10,1384265649,-0.144928,-0.7026367,-0.5950317,-0.9948273,-33.49752,-8.655067,197.6694,197.3257,25,145.118.83.22,10.139.171.151,3,0
2013-11-12 15:18:34.842,120,12,52.17018,4.457858,0,0,15.63966,13.93015,10,1384265650,-0.154541,-0.7825775,-0.5948486,-0.7745132,-34.15565,-9.114441,197.5604,197.2167,25,145.118.83.22,10.139.171.151,3,0
2013-11-12 15:18:35.044,121,12.1,52.17018,4.457858,0,0,15.63966,13.93015,10,1384265650,-0.1592255,-0.7536926,-0.5423737,-0.1686554,-33.44268,-9.286705,197.5076,197.1638,25,145.118.83.22,10.139.171.151,3,0
2013-11-12 15:18:35.306,122,12.2,52.17018,4.457858,0,0,15.63966,13.93015,10,1384265650,-0.1049805,-0.9238434,-0.5436707,-0.223732,-33.60722,-9.803505,197.4042,197.0605,25,145.118.83.22,10.139.171.151,3,0
2013-11-12 15:18:35.666,123,12.3,52.17018,4.457858,0,0,15.63966,13.93015,10,1384265650,-0.1340179,-0.8494568,-0.5936432,-0.7745132,-33.38784,-7.73632,197.2724,196.9287,25,145.118.83.22,10.139.171.151,3,0
2013-11-12 15:18:35.827,124,12.4,52.17018,4.457858,0,0,15.63966,13.93015,10,1384265650,-0.1276703,-0.9124603,-0.6333771,-0.9948273,-33.16847,-8.425377,197.2243,196.8806,25,145.118.83.22,10.139.171.151,3,0
2013-11-12 15:18:36.057,125,12.5,52.17018,4.457858,0,0,15.63966,13.93015,10,1384265650,-0.09414673,-0.8453979,-0.5993347,-0.8295898,-33.33301,-8.942177,197.1372,196.7935,25,145.118.83.22,10.139.171.151,3,0
2013-11-12 15:18:36.192,126,12.6,52.17018,4.457858,0,0,15.63966,13.93015,10,1384265650,-0.1099091,-0.8786316,-0.5253143,-1.049904,-33.66208,-9.40155,197.1707,196.827,25,145.118.83.22,10.139.171.151,3,0
2013-11-12 15:18:36.325,127,12.7,52.17018,4.457858,0,0,15.63966,13.9947,10,1384265651,-0.1127167,-0.8253632,-0.5877686,-1.049904,-33.4427,-9.631241,197.1461,196.8024,25,145.118.83.22,10.139.171.151,3,0
2013-11-12 15:18:36.466,128,12.8,52.17018,4.457858,0,0,15.63966,13.9947,10,1384265651,-0.08360291,-0.8046417,-0.6101227,-1.10498,-33.60723,-7.851158,197.1228,196.7791,25,145.118.83.22,10.139.171.151,3,0
2013-11-12 15:18:36.578,129,12.9,52.17018,4.457858,0,0,15.63966,13.9947,10,1384265651,-0.0717926,-0.7813873,-0.6042786,-1.710842,-33.22332,-8.367958,197.0016,196.6578,25,145.118.83.22,10.139.171.151,3,0
2013-11-12 15:18:36.703,130,13,52.17018,4.457858,0,0,15.63966,13.9947,10,1384265651,-0.08465576,-0.8492737,-0.5749359,-0.8846703,-32.51035,-9.229286,197.0079,196.6642,25,145.118.83.22,10.139.171.151,3,0
2013-11-12 15:18:36.803,131,13.1,52.17018,4.457858,0,0,15.63966,13.9947,10,1384265651,-0.1453247,-0.8223419,-0.5411835,-0.7194366,-33.00395,-8.02343,197.0057,196.662,25,145.118.83.22,10.139.171.151,3,0
2013-11-12 15:18:36.965,132,13.2,52.17018,4.457858,0,0,15.63966,13.9947,10,1384265651,-0.0745697,-0.8796082,-0.5553589,-0.9948273,-32.18129,-8.655067,196.7231,196.3794,25,145.118.83.22,10.139.171.151,3,0
2013-11-12 15:18:37.102,133,13.3,52.17018,4.457858,0,0,15.63966,13.9947,10,1384265651,-0.09381104,-0.8694458,-0.5554657,-0.9948273,-32.18129,-8.310539,196.7933,196.4496,25,145.118.83.22,10.139.171.151,3,0
2013-11-12 15:18:37.300,134,13.4,52.17018,4.457858,0,0,15.63966,9.5,5,1384265652,-0.04750061,-0.8043213,-0.6011963,-1.710842,-32.45551,-8.482803,196.7403,196.3966,25,145.118.83.22,10.139.171.151,3,0
2013-11-12 15:18:37.415,135,13.5,52.17018,4.457858,0,0,15.63966,9.5,5,1384265652,-0.1125641,-0.762207,-0.516861,-0.3889656,-32.23614,-8.942177,196.841,196.4973,25,145.118.83.22,10.139.171.151,3,0
2013-11-12 15:18:37.604,136,13.6,52.17018,4.457858,0,0,15.63966,9.5,5,1384265652,-0.1697083,-1.0327,-0.620575,-1.545609,-32.83941,-8.769913,196.8825,196.5388,25,145.118.83.22,10.139.171.151,3,0
2013-11-12 15:18:37.735,137,13.7,52.17018,4.457858,0,0,15.63966,9.5,5,1384265652,-0.2152405,-0.6911926,-0.4561005,-1.490528,-32.45551,-7.908585,196.8055,196.4617,25,145.118.83.22,10.139.171.151,3,0
2013-11-12 15:18:37.867,138,13.8,52.17018,4.457858,0,0,15.63966,9.5,5,1384265652,-0.1304474,-0.736969,-0.4683075,-1.325294,-32.62003,-8.655067,196.7437,196.4,25,145.118.83.22,10.139.171.151,3,0
2013-11-12 15:18:38.097,139,13.9,52.17018,4.457858,0,0,15.63966,9.5,5,1384265652,-0.2126923,-0.9063568,-0.5762634,-0.8846703,-32.72972,-8.655067,196.7634,196.4197,25,145.118.83.22,10.139.171.151,3,0
2013-11-12 15:18:38.234,140,14,52.17018,4.457858,0,0,15.63966,9.5,5,1384265652,-0.09864807,-0.8953094,-0.6177216,-0.9397469,-33.333,-7.678894,196.5847,196.2409,25,145.118.83.22,10.139.171.151,3,0
2013-11-12 15:18:38.392,141,14.1,52.17018,4.457858,0,0,15.63966,9.5,5,1384265652,-0.1371002,-0.8134003,-0.7232361,-1.270218,-33.99112,-8.597649,196.589,196.2453,25,145.118.83.22,10.139.171.151,3,0
2013-11-12 15:18:38.500,142,14.2,52.17018,4.457858,0,0,15.63966,9.5,5,1384265652,-0.2879486,-0.7065582,-0.6968536,-1.655762,-32.83941,-8.655067,196.4839,196.1401,25,145.118.83.22,10.139.171.151,3,0
2013-11-12 15:18:38.599,143,14.3,52.17018,4.457858,0,0,15.63966,9.5,5,1384265652,-0.1472473,-0.8026428,-0.6356812,-1.325294,-32.72973,-9.114441,196.4387,196.095,25,145.118.83.22,10.139.171.151,3,0
2013-11-12 15:18:38.740,144,14.4,52.17018,4.457858,0,0,15.63966,9.5,5,1384265653,-0.1472473,-0.8026428,-0.6356812,-1.160061,-32.23612,-9.631241,196.4166,196.0728,25,145.118.83.22,10.139.171.151,3,0
2013-11-12 15:18:39.001,145,14.5,52.17018,4.457858,0,0,15.63966,9.5,5,1384265653,-0.1299744,-0.6781464,-0.4470673,-1.600685,-32.89425,-7.908585,196.2737,195.9299,25,145.118.83.22,10.139.171.151,3,0
2013-11-12 15:18:39.118,146,14.6,52.17018,4.457858,0,0,15.63966,9.5,5,1384265653,-0.1178589,-0.820816,-0.5264893,-0.6643562,-33.49754,-7.966003,196.1385,195.7948,25,145.118.83.22,10.139.171.151,3,0
2013-11-12 15:18:39.309,147,14.7,52.17018,4.457858,0,0,15.63966,9.5,5,1384265653,-0.1295319,-0.7938843,-0.6005707,-0.223732,-33.71691,-8.310539,196.0411,195.6974,25,145.118.83.22,10.139.171.151,3,0
2013-11-12 15:18:39.421,148,14.8,52.17018,4.457858,0,0,15.63966,9.5,5,1384265653,-0.1213837,-0.8306122,-0.5371704,-0.8846703,-33.60722,-7.851158,196.0569,195.7131,25,145.118.83.22,10.139.171.151,3,0
2013-11-12 15:18:39.606,149,14.9,52.17018,4.457858,0,0,15.63966,9.5,5,1384265654,-0.1240997,-0.8747253,-0.5594635,0.1067352,-34.04597,-9.114441,195.854,195.5103,25,145.118.83.22,10.139.171.151,3,0
2013-11-12 15:18:39.729,150,15,52.17018,4.457858,0,0,15.63966,9.5,5,1384265654,-0.1921844,-0.8013153,-0.5861969,0.2719727,-34.2105,-9.631241,195.759,195.4153,25,145.118.83.22,10.139.171.151,5,0
2013-11-12 15:18:39.861,151,15.1,52.17018,4.457858,0,0,15.63966,9.5,5,1384265654,-0.09140015,-0.7714691,-0.5216217,-0.113575,-33.82659,-10.60741,195.7335,195.3898,25,145.118.83.22,10.139.171.151,5,0
2013-11-12 15:18:40.069,152,15.2,52.17018,4.457858,0,0,15.63966,9.5,5,1384265654,-0.2206116,-0.8345947,-0.6563263,0.8227539,-34.64925,-9.516396,195.5645,195.2207,25,145.118.83.22,10.139.171.151,5,0
2013-11-12 15:18:40.197,153,15.3,52.17018,4.457858,0,0,15.63966,9.5,5,1384265654,-0.1556854,-0.7718964,-0.6046143,0.9879875,-34.26534,-9.91835,195.5271,195.1834,25,145.118.83.22,10.139.171.151,5,0
2013-11-12 15:18:40.352,154,15.4,52.17018,4.457858,0,0,15.63966,9.5,5,1384265654,-0.1251831,-0.8277588,-0.554718,2.254784,-34.75893,-10.20546,195.7037,195.36,25,145.118.83.22,10.139.171.151,3,0
2013-11-12 15:18:40.478,155,15.5,52.17018,4.457858,0,0,15.63966,9.5,5,1384265654,-0.2253265,-0.8074951,-0.5872955,2.199705,-35.03316,-10.37772,195.7532,195.4095,25,145.118.83.22,10.139.171.151,3,0
2013-11-12 15:18:40.601,156,15.6,52.17018,4.457858,0,0,15.63966,9.5,5,1384265654,-0.121582,-0.8647461,-0.5312347,2.475096,-35.63644,-9.746086,195.5972,195.2535,25,145.118.83.22,10.139.171.151,3,0
2013-11-12 15:18:40.800,157,15.7,52.17018,4.457858,0,0,15.63966,9.5,5,1384265655,-0.03474426,-0.7960358,-0.5203552,2.915722,-34.86863,-10.54999,193.2076,192.8639,25,145.118.83.22,10.139.171.151,3,0
2013-11-12 15:18:40.998,158,15.8,52.17018,4.457858,0,0,15.63966,9.5,5,1384265655,-0.1572113,-1.019211,-0.7227783,1.318455,-33.8266,-10.14803,192.7604,192.4167,25,145.118.83.22,10.139.171.151,3,0
2013-11-12 15:18:41.082,159,15.9,52.17018,4.457858,0,0,15.63966,9.5,5,1384265655,-0.07058716,-0.822998,-0.6645508,0.9879875,-34.15567,-10.72225,194.987,194.6432,25,145.118.83.22,10.139.171.151,3,0
2013-11-12 15:18:41.194,160,16,52.17018,4.457858,0,0,15.63966,9.5,5,1384265655,-0.1946411,-0.6628723,-0.5213318,-1.380371,-34.32019,-9.746086,188.172,187.8283,25,145.118.83.22,10.139.171.151,3,0
2013-11-12 15:18:41.286,161,16.1,52.17018,4.457858,0,0,15.63966,9.5,5,1384265655,-0.1583557,-0.8973541,-0.6520233,-0.8295898,-33.22332,-9.631241,195.2849,194.9412,25,145.118.83.22,10.139.171.151,3,0
2013-11-12 15:18:41.404,162,16.2,52.17018,4.457858,0,0,15.63966,9.5,5,1384265655,-0.1603394,-0.7776184,-0.5978241,-0.7194366,-32.01675,-9.516396,194.0044,193.6607,25,145.118.83.22,10.139.171.151,3,0
2013-11-12 15:18:41.499,163,16.3,52.17018,4.457858,0,0,15.63966,9.5,5,1384265656,-0.1911469,-0.8043365,-0.5939789,-0.444046,-31.41347,-9.229286,194.633,194.2893,25,145.118.83.22,10.139.171.151,3,0
2013-11-12 15:18:41.617,164,16.4,52.17018,4.457858,0,0,15.63966,9.5,5,1384265656,-0.160141,-0.7929535,-0.5646667,-2.206543,-31.85222,-9.114441,195.2121,194.8684,25,145.118.83.22,10.139.171.151,3,0
2013-11-12 15:18:41.768,165,16.5,52.17018,4.457858,0,0,15.63966,9.5,5,1384265656,-0.1683044,-0.798233,-0.6250763,-2.151466,-30.91986,-9.631241,199.1025,198.7587,25,145.118.83.22,10.139.171.151,3,0
2013-11-12 15:18:42.056,166,16.6,52.17018,4.457858,0,0,15.63966,9.5,5,1384265656,-0.2248993,-0.785965,-0.5815125,-1.710842,-30.04236,-8.02343,200.5941,200.2504,25,145.118.83.22,10.139.171.151,3,0
2013-11-12 15:18:42.415,167,16.7,52.17018,4.457858,0,0,15.63966,9.5,5,1384265656,-0.170578,-0.6854095,-0.474472,-3.087795,-29.54877,-8.884758,200.2447,199.901,25,145.118.83.22,10.139.171.151,3,0
2013-11-12 15:18:42.596,168,16.8,52.17018,4.457858,0,0,15.63966,9.5,5,1384265656,-0.3039856,-0.7084503,-0.7241669,-3.032715,-29.93268,-8.827332,199.9351,199.5914,25,145.118.83.22,10.139.171.151,3,0
2013-11-12 15:18:42.736,169,16.9,52.17018,4.457858,0,0,15.63966,9.5,5,1384265656,-0.1510468,-0.8231049,-0.7446747,-2.426857,-29.3294,-8.884758,199.585,199.2413,25,145.118.83.22,10.139.171.151,3,0
2013-11-12 15:18:42.843,170,17,52.17018,4.457858,0,0,15.63966,9.5,5,1384265656,-0.2839661,-0.8406067,-0.7042542,-2.592091,-30.26174,-9.516396,199.3252,198.9815,25,145.118.83.22,10.139.171.151,3,0
2013-11-12 15:18:43.046,171,17.1,52.17018,4.457861,0,0.2732702,144.1554,9.5,5,1384265657,-0.1693115,-0.7262268,-0.5522308,-3.913967,-29.38424,-11.58358,199.5956,199.2519,25,145.118.83.22,10.139.171.151,3,0
2013-11-12 15:18:43.133,172,17.2,52.17018,4.457861,0,0.2732702,144.1554,9.5,5,1384265657,-0.06860352,-0.8689423,-0.6624451,-4.024124,-28.83581,-11.81327,203.6917,203.348,25,145.118.83.22,10.139.171.151,3,0
2013-11-12 15:18:43.262,173,17.3,52.17018,4.457861,0,0.2732702,144.1554,9.5,5,1384265657,-0.1760406,-0.6764069,-0.5728302,-3.418262,-27.46471,-11.41132,207.0572,206.7135,25,145.118.83.22,10.139.171.151,3,0
2013-11-12 15:18:43.360,174,17.4,52.17018,4.457861,0,0.2732702,144.1554,9.5,5,1384265657,0.001937866,-0.8417206,-0.6291504,-4.629982,-26.91627,-11.87069,208.9454,208.6016,25,145.118.83.22,10.139.171.151,3,0
2013-11-12 15:18:43.464,175,17.5,52.17018,4.457861,0,0.2732702,144.1554,9.5,5,1384265657,-0.1968384,-0.719223,-0.5961761,-3.858887,-25.92908,-13.24882,217.9682,217.6245,25,145.118.83.22,10.139.171.151,3,0
2013-11-12 15:18:43.569,176,17.6,52.17018,4.457861,0,0.2732702,144.1554,9.5,5,1384265657,-0.09776306,-0.8204651,-0.5516968,-5.401077,-26.14846,-15.66054,236.4685,236.1248,25,145.118.83.22,10.139.171.151,3,0
2013-11-12 15:18:43.677,177,17.7,52.17018,4.457861,0,0.2732702,144.1554,9.5,5,1384265657,-0.1357727,-0.8926392,-0.6208038,-5.456154,-23.79018,-18.01483,271.4227,271.079,25,145.118.83.22,10.139.171.151,3,0
2013-11-12 15:18:43.802,178,17.8,52.17018,4.457861,0,0.2732702,144.1554,9.5,5,1384265657,-0.1357727,-0.8926392,-0.6208038,-5.29092,-24.28377,-17.95741,269.3761,269.0323,25,145.118.83.22,10.139.171.151,3,0
2013-11-12 15:18:44.252,179,17.9,52.17018,4.457861,0,0.2732702,144.1554,9.5,5,1384265657,-0.2183685,-0.8212891,-0.5843048,-6.172169,-21.10283,-20.82851,300.0123,299.6686,25,145.118.83.22,10.139.171.151,3,0
2013-11-12 15:18:44.666,180,18,52.17019,4.457873,0,0.3339609,45.57217,13.55521,10,1384265658,-0.3003387,-0.7670441,-0.6022949,-6.667873,-20.71893,-21.80468,303.835,303.4913,25,145.118.83.22,10.139.171.151,5,0
2013-11-12 15:18:45.368,181,18.1,52.17019,4.457873,0,0.3339609,45.57217,13.55521,10,1384265658,-0.1158905,-0.9003448,-0.5642242,-4.629982,-18.03158,-28.98241,168.075,167.7312,26,0.0.0.0,10.139.171.151,3,0
2013-11-12 15:18:46.562,182,18.2,52.1702,4.457874,0,0.3995071,358.5225,13.39843,10,1384265659,-0.1158905,-0.9003448,-0.5642242,-1.10498,-18.68971,-34.26522,127.4668,127.123,26,0.0.0.0,10.139.171.151,3,0
2013-11-12 15:18:49.330,183,18.3,52.1702,4.457866,0,0.446382,313.8271,13.2129,10,1384265660,-0.3551941,-0.5994415,-0.4510651,8.368456,-27.13565,-23.46992,58.65601,58.31229,26,0.0.0.0,10.139.171.151,5,0
2013-11-12 15:18:49.560,184,18.4,52.1702,4.457866,0,0.446382,313.8271,13.2129,10,1384265660,-0.4113617,-0.5973206,-0.4483795,8.423534,-27.0808,-23.64217,58.66623,58.32251,26,0.0.0.0,10.139.171.151,3,0
2013-11-12 15:18:49.794,185,18.5,52.1702,4.457866,0,0.446382,313.8271,13.2129,10,1384265660,-0.2063599,-0.5060883,-0.3903656,8.643847,-27.62924,-22.60859,58.65033,58.30662,26,0.0.0.0,10.139.171.151,3,0
2013-11-12 15:18:50.260,186,18.6,52.1702,4.457866,0,0.446382,313.8271,13.2129,10,1384265660,-0.06402588,-0.3998566,-0.4358368,9.855564,-27.19049,-22.72343,58.85694,58.51323,26,0.0.0.0,10.139.171.151,3,0
2013-11-12 15:18:50.527,187,18.7,52.1702,4.45786,1.989677,0.4506438,261.1742,13.04955,10,1384265661,-0.06402588,-0.3998566,-0.4358368,8.864159,-26.75174,-22.83826,59.22243,58.87872,26,0.0.0.0,10.139.171.151,3,0
2013-11-12 15:18:50.863,188,18.8,52.1702,4.45786,1.989677,0.4506438,261.1742,13.04955,10,1384265661,-0.1813049,-2.01152,-2.015137,9.084471,-27.51955,-22.26405,59.52184,59.17812,26,0.0.0.0,10.139.171.151,3,0
2013-11-12 15:18:51.156,189,18.9,52.1702,4.45786,1.989677,0.4506438,261.1742,13.04955,10,1384265661,-0.1201935,0.1952057,0.1932526,9.249706,-26.03877,-23.24023,59.65545,59.31174,26,0.0.0.0,10.139.171.151,5,0
2013-11-12 15:18:51.424,190,19,52.1702,4.45786,1.989677,0.4506438,261.1742,13.04955,10,1384265661,0.06764221,-0.4929352,-0.4973755,8.533689,-27.51955,-22.3789,59.73228,59.38857,26,0.0.0.0,10.139.171.151,5,0
2013-11-12 15:18:51.568,191,19.1,52.1702,4.45786,1.989677,0.4506438,261.1742,13.04955,10,1384265661,-0.2181854,-1.490326,-1.082001,8.864159,-26.64205,-23.06796,59.78228,59.43857,26,0.0.0.0,10.139.171.151,5,0
2013-11-12 15:18:51.684,192,19.2,52.1702,4.45786,1.989677,0.4506438,261.1742,13.04955,10,1384265661,-0.08462524,-0.6634521,-0.6679077,9.029392,-27.13565,-22.66601,59.8392,59.49548,26,0.0.0.0,10.139.171.151,3,0
2013-11-12 15:18:51.799,193,19.3,52.1702,4.45786,1.989677,0.4506438,261.1742,13.04955,10,1384265661,-0.160965,-0.7866211,-0.6250763,8.643847,-26.75174,-22.26405,59.87588,59.53217,26,0.0.0.0,10.139.171.151,3,0
2013-11-12 15:18:52.130,194,19.4,52.1702,4.45786,1.989677,0.4506438,261.1742,13.04955,10,1384265661,-0.1578827,-0.6769257,-0.590271,8.588768,-27.02596,-23.01054,59.93273,59.58901,26,0.0.0.0,10.139.171.151,5,0
2013-11-12 15:18:52.284,195,19.5,52.1702,4.457857,2.018909,0.4585519,232.2421,9.5,5,1384265662,0.06488037,-0.7621002,-0.4412231,8.974316,-26.97112,-21.80468,59.94436,59.60065,26,0.0.0.0,10.139.171.151,5,0
2013-11-12 15:18:52.484,196,19.6,52.1702,4.457857,2.018909,0.4585519,232.2421,9.5,5,1384265662,-0.1607819,-0.7869873,-0.6649933,9.084471,-26.09361,-22.03437,59.96082,59.61711,26,0.0.0.0,10.139.171.151,5,0
2013-11-12 15:18:52.735,197,19.7,52.1702,4.457857,2.018909,0.4585519,232.2421,9.5,5,1384265662,-0.1141052,-0.7768555,-0.5207062,8.919237,-26.6969,-22.43632,59.98964,59.64592,26,0.0.0.0,10.139.171.151,5,0
2013-11-12 15:18:52.864,198,19.8,52.1702,4.457857,2.018909,0.4585519,232.2421,9.5,5,1384265662,-0.1017303,-0.8948364,-0.5700378,8.974316,-26.64205,-23.06796,60.00862,59.6649,26,0.0.0.0,10.139.171.151,5,0
2013-11-12 15:18:53.110,199,19.9,52.1702,4.457857,2.018909,0.4585519,232.2421,9.5,5,1384265662,-0.2045288,-0.7207947,-0.5708923,7.872753,-26.86143,-19.16327,60.07024,59.72652,26,0.0.0.0,10.139.171.151,3,0
2013-11-12 15:18:53.232,200,20,52.1702,4.457857,2.018909,0.4585519,232.2421,9.5,5,1384265662,-0.1862183,-0.747818,-0.4918671,8.313377,-26.86143,-19.27811,60.09803,59.75431,26,0.0.0.0,10.139.171.151,3,0
2013-11-12 15:18:53.455,201,20.1,52.1702,4.457857,2.018909,0.4585519,232.2421,9.5,5,1384265662,-0.260376,-0.7519379,-0.6810455,9.194628,-27.73893,-19.62264,60.15321,59.80949,26,0.0.0.0,10.139.171.151,3,0
2013-11-12 15:18:53.578,202,20.2,52.1702,4.457857,2.018909,0.4585519,232.2421,9.5,5,1384265662,-0.1832428,-0.8134308,-0.6114502,9.249706,-27.46471,-18.76131,60.23108,59.88736,26,0.0.0.0,10.139.171.151,3,0
2013-11-12 15:18:53.696,203,20.3,52.1702,4.457857,2.018909,0.4585519,232.2421,9.5,5,1384265662,-0.3571777,-0.7729492,-0.6229401,9.029392,-27.57439,-19.10585,60.28873,59.94501,26,0.0.0.0,10.139.171.151,3,0
2013-11-12 15:18:53.844,204,20.4,52.1702,4.457857,4.369671,0,232.2421,9.5,5,1384265663,-0.3571777,-0.7729492,-0.6229401,9.029392,-26.47752,-18.87616,60.33599,59.99228,26,0.0.0.0,10.139.171.151,3,0
2013-11-12 15:18:54.083,205,20.5,52.1702,4.457857,4.369671,0,232.2421,9.5,5,1384265663,-0.370575,-0.810791,-0.6219482,9.690331,-27.57439,-18.87616,60.42218,60.07846,26,0.0.0.0,10.139.171.151,3,0
2013-11-12 15:18:54.285,206,20.6,52.1702,4.457857,4.369671,0,232.2421,9.5,5,1384265663,-0.204422,-0.6602783,-0.6888428,9.525097,-27.30017,-18.7039,61.50241,61.15869,26,0.0.0.0,10.139.171.151,5,0
2013-11-12 15:18:54.437,207,20.7,52.1702,4.457857,4.369671,0,232.2421,9.5,5,1384265663,-0.1726227,-0.7504883,-0.5434265,8.919237,-26.80658,-19.45038,61.50156,61.15784,26,0.0.0.0,10.139.171.151,5,0
2013-11-12 15:18:54.586,208,20.8,52.1702,4.457857,4.369671,0,232.2421,9.5,5,1384265663,-0.1376038,-0.8040619,-0.4467621,6.661034,-26.31299,-19.96718,61.47335,61.12964,26,0.0.0.0,10.139.171.151,5,0
2013-11-12 15:18:54.749,209,20.9,52.1702,4.457857,4.369671,0,232.2421,9.5,5,1384265663,-0.09979248,-0.8352356,-0.2430573,7.487206,-27.35502,-19.79491,61.41073,61.06702,26,0.0.0.0,10.139.171.151,3,0
2013-11-12 15:18:54.876,210,21,52.1702,4.457857,4.369671,0,232.2421,9.5,5,1384265663,-0.09172058,-0.8157806,-0.01818848,7.872753,-27.95831,-19.85233,60.5265,60.18278,26,0.0.0.0,10.139.171.151,3,0
2013-11-12 15:18:55.107,211,21.1,52.1702,4.457857,4.369671,0,232.2421,9.5,5,1384265663,-0.01698303,-0.4120789,0.1572571,7.156736,-28.12284,-18.76131,60.16102,59.81731,26,0.0.0.0,10.139.171.151,3,0
2013-11-12 15:18:55.204,212,21.2,52.1702,4.457857,4.369671,0,232.2421,9.5,5,1384265663,-0.04550171,-0.4292603,0.03160095,8.423534,-27.40987,-19.85233,59.61419,59.27047,26,0.0.0.0,10.139.171.151,3,0
2013-11-12 15:18:55.381,213,21.3,52.1702,4.457856,5.584385,0.06877764,300.1653,12.78251,10,1384265664,-0.2174835,-0.9629974,-1.125229,9.249706,-27.24533,-18.76131,59.31709,58.97337,26,0.0.0.0,10.139.171.151,3,0
2013-11-12 15:18:55.793,214,21.4,52.1702,4.457856,5.584385,0.06877764,300.1653,12.78251,10,1384265664,-0.6819,-1.99942,-1.777634,10.73681,-27.0808,-16.29218,59.38384,59.04012,26,0.0.0.0,10.139.171.151,3,0
2013-11-12 15:18:57.157,215,21.5,52.1702,4.457856,5.584385,0.06877764,300.1653,12.78251,10,1384265664,0.1450653,1.162552,0.219986,15.74892,-28.12284,-13.59335,48.65115,48.30743,26,0.0.0.0,10.139.171.151,3,0
2013-11-12 15:18:57.409,216,21.6,52.1702,4.457856,5.584385,0.06877764,300.1653,12.78251,10,1384265664,-0.4260712,-1.861618,-1.20842,17.34619,-23.13206,-9.516396,57.46269,57.11897,26,0.0.0.0,10.139.171.151,3,0
2013-11-12 15:18:58.077,217,21.7,52.1702,4.457846,0.7030373,0.1657844,280.5136,12.70381,10,1384265665,-0.09564209,-2.002472,-0.8182831,14.97783,-18.90909,-13.01913,65.72708,65.38336,26,0.0.0.0,10.139.171.151,3,0
2013-11-12 15:18:58.647,218,21.8,52.1702,4.457846,0.7030373,0.1657844,280.5136,12.70381,10,1384265665,-0.4764404,-0.6298523,-0.4047241,15.804,-21.37706,-13.1914,64.39913,64.05541,26,0.0.0.0,10.139.171.151,3,0
2013-11-12 15:18:59.033,219,21.9,52.1702,4.457846,0.7030373,0.1657844,280.5136,12.70381,10,1384265665,-0.1878204,-0.6847076,-0.8707886,15.69385,-23.57081,-12.04296,60.67326,60.32954,26,0.0.0.0,10.139.171.151,3,0
2013-11-12 15:18:59.390,220,22,52.1702,4.457846,0.7030373,0.1657844,280.5136,12.70381,10,1384265665,-0.2591858,-0.4255981,-0.469635,16.79541,-22.91268,-8.138268,56.16627,55.82255,26,0.0.0.0,10.139.171.151,3,0
2013-11-12 15:18:59.631,221,22.1,52.1702,4.457846,0.7030373,0.1657844,280.5136,12.70381,10,1384265665,-0.194458,-0.8080444,-0.4723053,18.17236,-24.72253,-7.391785,51.14365,50.79993,26,0.0.0.0,10.139.171.151,3,0
2013-11-12 15:19:00.208,222,22.2,52.17021,4.45782,0,0.3312674,300.5254,12.56093,10,1384265666,-0.1583405,-0.6993866,-0.5882874,16.35478,-24.558,-7.219521,249.3203,248.9766,25,0.0.0.0,10.139.171.151,3,0
2013-11-12 15:19:00.625,223,22.3,52.17021,4.45782,0,0.3312674,300.5254,12.56093,10,1384265666,-0.116745,-0.7174225,-0.6542816,17.0708,-23.62565,-3.716789,242.3723,242.0286,25,0.0.0.0,10.139.171.151,3,0
2013-11-12 15:19:00.897,224,22.4,52.17021,4.45782,0,0.3312674,300.5254,12.56093,10,1384265666,-0.02394104,-0.7259064,-0.5243988,17.78682,-22.03518,-3.544518,244.46,244.1163,25,0.0.0.0,10.139.171.151,3,0
2013-11-12 15:19:01.233,225,22.5,52.17021,4.45782,0,0.3312674,300.5254,12.56093,10,1384265666,-0.1062164,-0.9083252,-0.5612335,18.39267,-21.65128,-4.865227,244.5526,244.2089,25,0.0.0.0,10.139.171.151,3,0
2013-11-12 15:19:01.478,226,22.6,52.17021,4.45777,0,0.5488458,268.1958,12.44366,10,1384265667,-0.09667969,-0.9449615,-0.5912933,19.27392,-21.76096,-5.898819,249.2816,248.9379,25,0.0.0.0,10.139.171.151,3,0
2013-11-12 15:19:01.681,227,22.7,52.17021,4.45777,0,0.5488458,268.1958,12.44366,10,1384265667,-0.06600952,-0.9320526,-0.5016327,18.77822,-23.24174,-4.578117,246.6004,246.2567,25,0.0.0.0,10.139.171.151,3,0
2013-11-12 15:19:02.253,228,22.8,52.17021,4.45777,0,0.5488458,268.1958,12.44366,10,1384265667,-0.09393311,-0.9261475,-0.6682434,19.71455,-29.65846,-0.6160049,236.3764,236.0327,25,0.0.0.0,10.139.171.151,3,0
2013-11-12 15:19:02.542,229,22.9,52.17021,4.45777,0,0.5488458,268.1958,12.44366,10,1384265667,-0.1542053,-0.7944641,-0.6104126,20.98135,-29.60363,-1.247643,236.6283,236.2845,25,0.0.0.0,10.139.171.151,3,0
2013-11-12 15:19:02.850,230,23,52.17021,4.45777,0,0.5488458,268.1958,12.44366,10,1384265667,0.05651855,-0.6109467,-0.6022797,20.76103,-30.26175,-2.166397,237.4708,237.1271,25,0.0.0.0,10.139.171.151,3,0
2013-11-12 15:19:03.118,231,23.1,52.17021,4.45777,0,0.5488458,268.1958,12.44366,10,1384265667,-0.1004639,-0.8300781,-0.5400085,20.48564,-28.01315,-3.601944,241.1502,240.8065,25,0.0.0.0,10.139.171.151,3,0
2013-11-12 15:19:03.265,232,23.2,52.17021,4.45777,0,0.5488458,268.1958,12.44366,10,1384265667,-0.1517029,-0.8199768,-0.6161804,20.92627,-27.13566,-1.879288,239.8731,239.5294,25,0.0.0.0,10.139.171.151,3,0
2013-11-12 15:19:03.393,233,23.3,52.1702,4.457712,0,0.7953767,262.5532,12.34616,10,1384265668,-0.219574,-0.7320557,-0.5553436,20.87119,-25.76456,-2.740616,242.0639,241.7202,25,0.0.0.0,10.139.171.151,3,0
2013-11-12 15:19:03.535,234,23.4,52.1702,4.457712,0,0.7953767,262.5532,12.34616,10,1384265668,-0.219574,-0.7320557,-0.5553436,21.91768,-25.8194,-2.223816,242.2556,241.9119,25,0.0.0.0,10.139.171.151,3,0
2013-11-12 15:19:03.660,235,23.5,52.1702,4.457712,0,0.7953767,262.5532,12.34616,10,1384265668,-0.1454926,-0.692215,-0.522049,23.12939,-25.16128,-1.649597,242.4704,242.1266,25,0.0.0.0,10.139.171.151,3,0
2013-11-12 15:19:03.843,236,23.6,52.1702,4.457712,0,0.7953767,262.5532,12.34616,10,1384265668,-0.07678223,-1.010574,-0.6728058,24.28603,-23.57081,-2.39608,246.1248,245.7811,25,0.0.0.0,10.139.171.151,3,0
2013-11-12 15:19:04.096,237,23.7,52.1702,4.457712,0,0.7953767,262.5532,12.34616,10,1384265668,-0.107605,-0.9251709,-0.5894318,23.79033,-25.16128,-4.405846,245.8936,245.5499,25,0.0.0.0,10.139.171.151,5,0
2013-11-12 15:19:04.230,238,23.8,52.1702,4.457712,0,0.7953767,262.5532,12.34616,10,1384265668,-0.05357361,-0.6802216,-0.5090637,24.01064,-24.50315,-4.750381,248.8959,248.5522,25,0.0.0.0,10.139.171.151,5,0
2013-11-12 15:19:04.384,239,23.9,52.1702,4.457712,0,0.7953767,262.5532,12.34616,10,1384265668,-0.03901672,-0.7866058,-0.6771545,22.79892,-25.0516,-5.09491,248.305,247.9613,25,0.0.0.0,10.139.171.151,5,0
2013-11-12 15:19:04.570,240,24,52.1702,4.457712,0,0.7953767,262.5532,12.34616,10,1384265668,-0.02828979,-0.9358826,-0.6251221,22.854,-23.6805,-7.449211,253.4349,253.0912,25,0.0.0.0,10.139.171.151,5,0
2013-11-12 15:19:04.700,241,24.1,52.1702,4.457712,0,0.7953767,262.5532,12.34616,10,1384265668,-0.1139221,-0.7081299,-0.4848785,22.79892,-23.62566,-7.276939,254.1455,253.8018,25,0.0.0.0,10.139.171.151,5,0
2013-11-12 15:19:04.858,242,24.2,52.1702,4.457712,0,0.7953767,262.5532,12.34616,10,1384265668,-0.07922363,-0.9431763,-0.6807861,19.76963,-21.48674,-12.38749,264.045,263.7012,25,0.0.0.0,10.139.171.151,5,0
2013-11-12 15:19:05.099,243,24.3,52.17021,4.45765,0,1.075701,277.3012,12.30389,10,1384265669,-0.1329193,-0.7311249,-0.5832367,18.77822,-21.15769,-13.53593,267.3832,267.0395,25,0.0.0.0,10.139.171.151,5,0
2013-11-12 15:19:05.234,244,24.4,52.17021,4.45765,0,1.075701,277.3012,12.30389,10,1384265669,-0.2005768,-0.69133,-0.5466003,16.52002,-19.12847,-15.89022,275.2711,274.9274,25,0.0.0.0,10.139.171.151,5,0
2013-11-12 15:19:05.367,245,24.5,52.17021,4.45765,0,1.075701,277.3012,12.30389,10,1384265669,-0.1078491,-0.8686676,-0.6090393,15.69385,-18.4155,-16.52187,277.785,277.4413,25,0.0.0.0,10.139.171.151,5,0
2013-11-12 15:19:05.534,246,24.6,52.17021,4.45765,0,1.075701,277.3012,12.30389,10,1384265669,-0.1083374,-0.910675,-0.4999237,10.46142,-16.60566,-21.97694,290.8157,290.472,25,0.0.0.0,10.139.171.151,5,0
