time,timestamp,recordtime,lat,long,alt,speed,course,verticalAccuracy,horizontalAccuracy,locTimeStamp,accelerationX,accelerationY,accelerationZ,HeadingX,HeadingY,HeadingZ,TrueHeading,MagneticHeading,HeadingAccuracy,en0,pdp_ip0,DeviceOrientation,Event
2013-11-12 15:13:05.222,1,0.1,52.17019,4.457928,0,1.246731,315.4623,9.045114,5,1384265443,-0.128952,-0.6688995,-0.719696,7.071251,-29.78997,-26.27525,31.61197,31.26826,26,0.0.0.0,10.139.171.151,1,0
2013-11-12 15:13:05.659,2,0.2,52.17019,4.457928,0,1.246731,315.4623,9.045114,5,1384265443,-0.08047485,-0.8304596,-0.7550812,5.804707,-30.83047,-24.27503,28.53543,28.19172,26,0.0.0.0,10.139.171.151,1,0
2013-11-12 15:13:06.025,3,0.3,52.17019,4.457928,0,1.246731,315.4623,9.045114,5,1384265443,-0.1875305,-0.7666016,-0.7381592,5.033764,-30.72094,-24.96084,29.02726,28.68355,26,0.0.0.0,10.139.171.151,1,0
2013-11-12 15:13:06.286,4,0.4,52.17019,4.457928,0,1.246731,315.4623,9.045114,5,1384265443,-0.04981995,-0.7193756,-0.7231445,4.813496,-30.61142,-25.64661,29.11171,28.768,26,0.0.0.0,10.139.171.151,1,0
2013-11-12 15:13:06.551,5,0.5,52.17019,4.457928,0,1.246731,315.4623,9.045114,5,1384265443,-0.09463501,-0.7631226,-0.6910553,5.198967,-30.66618,-25.47517,29.188,28.84428,26,0.0.0.0,10.139.171.151,1,0
2013-11-12 15:13:06.761,6,0.6,52.17019,4.457928,0,0,315.4623,9.08362,5,1384265444,-0.04605103,-0.8099976,-0.6868591,4.868565,-30.00903,-25.93235,29.28541,28.94169,26,0.0.0.0,10.139.171.151,1,0
2013-11-12 15:13:07.066,7,0.7,52.17019,4.457928,0,0,315.4623,9.08362,5,1384265444,-0.07400513,-0.8535919,-0.59729,5.364168,-30.39237,-25.53233,29.3105,28.96678,26,0.0.0.0,10.139.171.151,1,0
2013-11-12 15:13:07.243,8,0.8,52.17019,4.457928,0,0,315.4623,9.08362,5,1384265444,-0.173584,-0.8017883,-0.4926758,5.198967,-30.3376,-24.90368,29.31569,28.97197,26,0.0.0.0,10.139.171.151,1,0
2013-11-12 15:13:07.378,9,0.9,52.17019,4.457928,0,0,315.4623,9.08362,5,1384265444,-0.173584,-0.8017883,-0.4926758,3.98749,-29.4614,-25.93235,29.31633,28.97261,26,0.0.0.0,10.139.171.151,1,0
2013-11-12 15:13:07.606,10,1,52.17019,4.457928,0,0,315.4623,9.08362,5,1384265444,-0.179657,-0.8626099,-0.5295258,4.317892,-29.78997,-25.47517,29.28698,28.94327,26,0.0.0.0,10.139.171.151,1,0
2013-11-12 15:13:08.168,11,1.1,52.17019,4.457928,0,0,315.4623,9.08362,5,1384265444,-0.2199097,-0.7724762,-0.4831848,5.419235,-30.55666,-26.04665,29.18234,28.83862,26,0.0.0.0,10.139.171.151,1,0
2013-11-12 15:13:08.355,12,1.2,52.17019,4.457928,0,0,315.4623,9.166799,5,1384265445,-0.1694489,-0.7754517,-0.4859009,4.207758,-29.8995,-27.30393,29.17735,28.83363,26,0.0.0.0,10.139.171.151,1,0
2013-11-12 15:13:08.566,13,1.3,52.17019,4.457928,0,0,315.4623,9.166799,5,1384265445,-0.2825928,-0.9489288,-0.4664001,4.758429,-30.77571,-25.36086,29.17651,28.8328,26,0.0.0.0,10.139.171.151,1,0
2013-11-12 15:13:08.810,14,1.4,52.17019,4.457928,0,0,315.4623,9.166799,5,1384265445,-0.2139435,-0.80867,-0.3681793,4.923632,-31.04952,-25.76092,29.17304,28.82933,26,0.0.0.0,10.139.171.151,1,0
2013-11-12 15:13:09.191,15,1.5,52.17019,4.457928,0,0,315.4623,9.166799,5,1384265445,-0.2927856,-0.9884949,-0.5403442,5.088833,-30.00902,-25.47517,29.15554,28.81182,26,0.0.0.0,10.139.171.151,1,0
2013-11-12 15:13:09.336,16,1.6,52.17019,4.457928,0,0,315.4623,9.166799,5,1384265445,-0.1325531,-0.8859711,-0.5243988,4.372959,-30.50189,-24.61794,29.14494,28.80122,26,0.0.0.0,10.139.171.151,1,0
2013-11-12 15:13:09.463,17,1.7,52.17019,4.457928,0,0,315.4623,9.166799,5,1384265445,-0.07559204,-0.9214478,-0.5377197,4.593227,-29.95427,-26.44669,29.12682,28.7831,26,0.0.0.0,10.139.171.151,1,0
2013-11-12 15:13:09.585,18,1.8,52.17019,4.457928,0,0,315.4623,9.166799,5,1384265445,-0.1105957,-0.8846893,-0.5496216,4.097624,-30.55666,-25.93235,29.11376,28.77004,26,0.0.0.0,10.139.171.151,1,0
2013-11-12 15:13:09.728,19,1.9,52.17019,4.457928,0,0,315.4623,9.166799,5,1384265445,-0.1494751,-0.8552399,-0.5119019,5.584436,-30.28284,-24.96084,29.10213,28.75841,26,0.0.0.0,10.139.171.151,1,0
2013-11-12 15:13:09.936,20,2,52.17019,4.457928,0,0,315.4623,9.232622,5,1384265446,-0.1298065,-0.8419647,-0.5138092,4.758429,-29.8995,-25.01798,29.09527,28.75155,26,0.0.0.0,10.139.171.151,1,0
2013-11-12 15:13:10.150,21,2.1,52.17019,4.457928,0,0,315.4623,9.232622,5,1384265446,-0.1530304,-0.8154449,-0.5529022,5.033764,-30.17332,-24.27503,29.09295,28.74923,26,0.0.0.0,10.139.171.151,1,0
2013-11-12 15:13:10.302,22,2.2,52.17019,4.457928,0,0,315.4623,9.232622,5,1384265446,-0.2215729,-0.7635803,-0.585434,4.428028,-31.65191,-22.73203,29.09199,28.74828,26,0.0.0.0,10.139.171.151,1,0
2013-11-12 15:13:10.454,23,2.3,52.17019,4.457928,0,0,315.4623,9.232622,5,1384265446,-0.165329,-0.7705231,-0.5813141,3.60202,-31.26857,-22.33199,29.0931,28.74938,26,0.0.0.0,10.139.171.151,1,0
2013-11-12 15:13:10.606,24,2.4,52.17019,4.457928,0,0,315.4623,9.232622,5,1384265446,-0.1915588,-0.7810822,-0.6174164,5.419235,-30.11856,-22.38914,29.09568,28.75196,26,0.0.0.0,10.139.171.151,1,0
2013-11-12 15:13:10.814,25,2.5,52.17019,4.457928,0,0,315.4623,9.232622,5,1384265446,-0.133255,-0.8714752,-0.6510162,4.152691,-29.84474,-22.44628,29.10258,28.75886,26,0.0.0.0,10.139.171.151,1,0
2013-11-12 15:13:11.047,26,2.6,52.17019,4.457928,0,0,315.4623,9.232622,5,1384265446,-0.133255,-0.8714752,-0.6510162,4.593227,-29.84474,-22.78918,29.11259,28.76888,26,0.0.0.0,10.139.171.151,1,0
2013-11-12 15:13:11.155,27,2.7,52.17019,4.457928,0,0,315.4623,9.232622,5,1384265446,-0.05979919,-0.7360687,-0.5371704,4.593227,-30.28284,-21.87479,29.12072,28.777,26,0.0.0.0,10.139.171.151,1,0
2013-11-12 15:13:11.292,28,2.8,52.17019,4.457928,0,0,315.4623,9.232622,5,1384265446,-0.0763855,-0.7872314,-0.6110992,4.813496,-30.39237,-22.21769,29.1291,28.78538,26,0.0.0.0,10.139.171.151,1,0
2013-11-12 15:13:11.402,29,2.9,52.17019,4.457928,0,0,315.4623,9.329188,10,1384265447,-0.08641052,-0.8896637,-0.6157379,4.097624,-30.22808,-22.27483,29.13767,28.79395,26,0.0.0.0,10.139.171.151,1,0
2013-11-12 15:13:11.542,30,3,52.17019,4.457928,0,0,315.4623,9.329188,10,1384265447,-0.1153259,-0.8417053,-0.5624237,4.593227,-29.51616,-21.98909,29.14391,28.80019,26,0.0.0.0,10.139.171.151,1,0
2013-11-12 15:13:11.632,31,3.1,52.17019,4.457928,0,0,315.4623,9.329188,10,1384265447,-0.07885742,-0.694519,-0.5246887,3.822289,-30.61142,-22.33199,29.15326,28.80955,26,0.0.0.0,10.139.171.151,1,0
2013-11-12 15:13:11.840,32,3.2,52.17019,4.457928,0,0,315.4623,9.329188,10,1384265447,-0.1932526,-0.9224701,-0.586853,5.1439,-30.06379,-22.21769,29.16103,28.81731,26,0.0.0.0,10.139.171.151,1,0
2013-11-12 15:13:12.285,33,3.3,52.17019,4.457928,0,0,315.4623,9.329188,10,1384265447,-0.144989,-0.6651917,-0.5591125,4.868565,-30.55665,-22.96062,29.16649,28.82277,26,0.0.0.0,10.139.171.151,1,0
2013-11-12 15:13:12.557,34,3.4,52.17019,4.457928,0,0,315.4623,9.329188,10,1384265447,-0.1391754,-0.8784332,-0.5692444,4.428028,-30.00902,-22.84632,29.17057,28.82685,26,0.0.0.0,10.139.171.151,1,0
2013-11-12 15:13:12.826,35,3.5,52.17019,4.457928,0,0,315.4623,9.329188,10,1384265447,-0.147995,-0.8338776,-0.5245972,4.978699,-29.78997,-22.04625,29.1737,28.82998,26,0.0.0.0,10.139.171.151,1,0
2013-11-12 15:13:13.045,36,3.6,52.17019,4.457928,0,0,315.4623,9.37901,5,1384265448,-0.1430664,-0.8753967,-0.5673218,4.265247,-32.18512,-22.78059,269.1284,268.7847,25,0.0.0.0,10.139.171.151,1,0
2013-11-12 15:13:13.152,37,3.7,52.17019,4.457928,0,0,315.4623,9.37901,5,1384265448,-0.1252899,-0.7472229,-0.508194,4.100012,-31.47215,-23.64191,268.8336,268.4898,25,0.0.0.0,10.139.171.151,1,0
2013-11-12 15:13:13.307,38,3.8,52.17019,4.457928,0,0,315.4623,9.37901,5,1384265448,-0.2344055,-0.9520416,-0.5976562,4.540638,-31.47215,-23.29739,268.7558,268.4121,25,0.0.0.0,10.139.171.151,1,0
2013-11-12 15:13:13.410,39,3.9,52.17019,4.457928,0,0,315.4623,9.37901,5,1384265448,-0.1508636,-0.6778412,-0.4588165,4.926184,-31.08824,-23.5845,268.6861,268.3423,25,0.0.0.0,10.139.171.151,1,0
2013-11-12 15:13:13.532,40,4,52.17019,4.457928,0,0,315.4623,9.37901,5,1384265448,-0.1222992,-0.9567566,-0.5485382,5.201574,-31.58183,-22.95284,268.5811,268.2374,25,0.0.0.0,10.139.171.151,1,0
2013-11-12 15:13:13.641,41,4.1,52.17019,4.457928,0,0,315.4623,9.37901,5,1384265448,-0.1203461,-0.9830933,-0.4267578,4.650793,-32.13028,-23.0677,268.4678,268.1241,25,0.0.0.0,10.139.171.151,1,0
2013-11-12 15:13:13.790,42,4.2,52.17019,4.457928,0,0,315.4623,9.37901,5,1384265448,-0.1381226,-0.7974243,-0.3630371,4.595715,-32.07543,-24.27355,268.3597,268.016,25,0.0.0.0,10.139.171.151,1,0
2013-11-12 15:13:14.200,43,4.3,52.17019,4.457928,0,0,315.4623,9.37901,5,1384265448,-0.1682129,-0.9843445,-0.564209,4.595715,-32.62386,-24.27355,268.2914,267.9477,25,0.0.0.0,10.139.171.151,1,0
2013-11-12 15:13:14.400,44,4.4,52.17019,4.457928,0,0,315.4623,9.37901,5,1384265448,-0.09927368,-0.7147675,-0.5373688,4.595715,-31.63668,-24.50324,268.1877,267.844,25,0.0.0.0,10.139.171.151,1,0
2013-11-12 15:13:14.594,45,4.5,52.17019,4.457928,0,0,315.4623,9.415609,5,1384265449,-0.1599121,-0.848465,-0.7602234,4.485559,-31.96574,-25.1923,268.1928,267.8491,25,0.0.0.0,10.139.171.151,1,0
2013-11-12 15:13:14.756,46,4.6,52.17019,4.457928,0,0,315.4623,9.415609,5,1384265449,-0.1768646,-0.6280518,-0.6323547,4.76095,-31.36245,-24.44582,268.1772,267.8334,25,0.0.0.0,10.139.171.151,1,0
2013-11-12 15:13:15.002,47,4.7,52.17019,4.457928,0,0,315.4623,9.415609,5,1384265449,-0.2194061,-0.8930359,-0.6318359,6.964075,-32.23996,-22.72316,265.2523,264.9085,25,0.0.0.0,10.139.171.151,1,0
2013-11-12 15:13:15.134,48,4.8,52.17019,4.457928,0,0,315.4623,9.415609,5,1384265449,-0.1181183,-0.8417664,-0.5750885,6.964075,-33.55621,-22.26379,265.0471,264.7034,25,0.0.0.0,10.139.171.151,1,0
2013-11-12 15:13:15.253,49,4.9,52.17019,4.457928,0,0,315.4623,9.415609,5,1384265449,-0.1720734,-0.8113403,-0.5714874,5.587122,-32.51418,-23.12511,265.0125,264.6688,25,0.0.0.0,10.139.171.151,1,0
2013-11-12 15:13:15.398,50,5,52.17019,4.457928,0,0,315.4623,9.415609,5,1384265449,-0.1214905,-0.8640137,-0.5555878,8.175793,-32.23996,-24.90519,265.4399,265.0962,25,0.0.0.0,10.139.171.151,1,0
2013-11-12 15:13:15.535,51,5.1,52.17019,4.457928,0,0,315.4623,9.415609,5,1384265449,-0.06906128,-0.8083191,-0.4425812,7.735168,-32.13027,-25.82394,265.8328,265.4891,25,0.0.0.0,10.139.171.151,1,0
2013-11-12 15:13:15.650,52,5.2,52.17019,4.457928,0,0,315.4623,9.415609,5,1384265449,-0.06011963,-0.788681,-0.4133759,8.946888,-32.34964,-25.24972,272.3068,271.9631,25,0.0.0.0,10.139.171.151,1,0
2013-11-12 15:13:15.831,53,5.3,52.17019,4.457928,0,0,315.4623,9.563649,10,1384265450,-0.1100464,-0.9642639,-0.486145,8.120716,-33.28199,-23.81417,270.3615,270.0177,25,0.0.0.0,10.139.171.151,1,0
2013-11-12 15:13:16.109,54,5.4,52.17019,4.457928,0,0,315.4623,9.563649,10,1384265450,-0.1257935,-0.8545685,-0.4933167,7.735168,-32.78839,-21.68957,270.8742,270.5305,25,0.0.0.0,10.139.171.151,1,0
2013-11-12 15:13:16.252,55,5.5,52.17019,4.457928,0,0,315.4623,9.563649,10,1384265450,-0.1414185,-0.8123474,-0.6161499,8.230871,-33.83043,-19.90949,268.293,267.9492,25,0.0.0.0,10.139.171.151,1,0
2013-11-12 15:13:16.449,56,5.6,52.17019,4.457928,0,0,315.4623,9.563649,10,1384265450,-0.2258148,-0.8607025,-0.6348419,10.21368,-34.26918,-18.64621,260.4844,260.1407,25,0.0.0.0,10.139.171.151,1,0
2013-11-12 15:13:16.692,57,5.7,52.17019,4.457928,0,0,315.4623,9.563649,10,1384265450,-0.1922455,-0.782547,-0.4567719,11.03986,-34.76277,-15.37316,249.5308,249.1871,25,0.0.0.0,10.139.171.151,1,0
2013-11-12 15:13:16.814,58,5.8,52.17019,4.457928,0,0,315.4623,9.563649,10,1384265450,-0.2300568,-0.8448029,-0.6173859,13.35314,-35.64027,-13.53566,246.1475,245.8038,25,0.0.0.0,10.139.171.151,1,0
2013-11-12 15:13:17.028,59,5.9,52.17019,4.457928,0,0,315.4623,9.563649,10,1384265450,-0.124588,-0.7830963,-0.6940613,13.40821,-36.24355,-12.55949,240.5188,240.175,25,0.0.0.0,10.139.171.151,1,0
2013-11-12 15:13:17.144,60,6,52.1702,4.457938,0,0.1340206,269.4411,35.04673,30,1384265451,-0.1490479,-0.854187,-0.6121826,15.11564,-36.51777,-9.745819,236.5381,236.1944,25,0.0.0.0,10.139.171.151,1,0
2013-11-12 15:13:17.413,61,6.1,52.1702,4.457938,0,0.1340206,269.4411,35.04673,30,1384265451,-0.0120697,-0.6924591,-0.5828552,15.28087,-36.46293,-8.999336,235.268,234.9243,25,0.0.0.0,10.139.171.151,1,0
2013-11-12 15:13:17.679,62,6.2,52.1702,4.457938,0,0.1340206,269.4411,35.04673,30,1384265451,-0.07728577,-0.9404602,-0.7022247,16.05197,-34.48855,-9.803238,238.4866,238.1428,25,0.0.0.0,10.139.171.151,1,0
2013-11-12 15:13:18.089,63,6.3,52.1702,4.457938,0,0.1340206,269.4411,35.04673,30,1384265451,-0.1290131,-0.8154602,-0.6073456,16.65783,-31.69152,-7.908318,238.1064,237.7627,25,0.0.0.0,10.139.171.151,1,0
2013-11-12 15:13:18.256,64,6.4,52.1702,4.457938,0,0.1340206,269.4411,35.04673,30,1384265451,0.006835938,-0.8224487,-0.5425262,18.25509,-30.75917,-6.357925,238.3285,237.9848,25,0.0.0.0,10.139.171.151,1,0
2013-11-12 15:13:18.430,65,6.5,52.1702,4.457938,0,0.1340206,269.4411,35.04673,30,1384265451,-0.02941895,-0.7738953,-0.5486298,16.54767,-30.15589,-6.53019,238.8453,238.5016,25,0.0.0.0,10.139.171.151,1,0
2013-11-12 15:13:18.567,66,6.6,52.1702,4.457938,0,0.1340206,269.4411,35.04673,30,1384265451,0.05726624,-0.7637177,-0.6369324,18.36525,-30.75917,-6.702461,240.3997,240.056,25,0.0.0.0,10.139.171.151,1,0
2013-11-12 15:13:18.720,67,6.7,52.1702,4.457938,0,0.1340206,269.4411,35.04673,30,1384265451,0.00994873,-0.7436218,-0.5729065,17.86954,-31.47214,-8.712227,241.6205,241.2768,25,0.0.0.0,10.139.171.151,1,0
2013-11-12 15:13:18.850,68,6.8,52.1702,4.457938,0,0.1340206,269.4411,35.04673,30,1384265451,-0.04147339,-0.6537628,-0.5830841,17.20861,-30.92371,-10.20519,241.9354,241.5917,25,0.0.0.0,10.139.171.151,1,0
2013-11-12 15:13:19.101,69,6.9,52.17019,4.457923,0,0.2509656,256.4807,10.45403,10,1384265452,-0.1985779,-0.9025421,-0.7738495,16.49259,-33.06261,-10.03293,242.4896,242.1459,25,0.0.0.0,10.139.171.151,1,0
2013-11-12 15:13:19.252,70,7,52.17019,4.457923,0,0.2509656,256.4807,10.45403,10,1384265452,-0.2368317,-1.050751,-1.036484,17.15353,-33.50136,-9.803238,242.0793,241.7356,25,0.0.0.0,10.139.171.151,1,0
2013-11-12 15:13:19.369,71,7.1,52.17019,4.457923,0,0.2509656,256.4807,10.45403,10,1384265452,-0.2368317,-1.050751,-1.036484,18.08986,-32.89808,-8.597382,242.3111,241.9674,25,0.0.0.0,10.139.171.151,1,0
2013-11-12 15:13:19.485,72,7.2,52.17019,4.457923,0,0.2509656,256.4807,10.45403,10,1384265452,-0.2581635,-1.112228,-0.6401672,18.36525,-33.06261,-8.080582,242.0355,241.6918,25,0.0.0.0,10.139.171.151,1,0
2013-11-12 15:13:19.598,73,7.3,52.17019,4.457923,0,0.2509656,256.4807,10.45403,10,1384265452,-0.1820831,-0.787796,-0.3661652,18.4754,-33.50136,-8.769646,242.1432,241.7995,25,0.0.0.0,10.139.171.151,1,0
2013-11-12 15:13:19.731,74,7.4,52.17019,4.457923,0,0.2509656,256.4807,10.45403,10,1384265452,-0.1812286,-0.9472504,-0.5984344,18.42032,-33.77558,-8.827065,242.3643,242.0206,25,0.0.0.0,10.139.171.151,1,0
2013-11-12 15:13:20.013,75,7.5,52.17019,4.457923,0,0.2509656,256.4807,10.45403,10,1384265452,-0.1489258,-0.9637604,-0.5155182,17.64923,-34.76277,-9.401283,242.4664,242.1227,25,0.0.0.0,10.139.171.151,1,0
2013-11-12 15:13:20.274,76,7.6,52.17019,4.457923,0,0.2509656,256.4807,10.45403,10,1384265452,0.1024628,-0.8712158,-0.4261627,16.27228,-33.50136,-10.60715,242.7424,242.3987,25,0.0.0.0,10.139.171.151,1,0
2013-11-12 15:13:20.543,77,7.7,52.17019,4.457894,0,0.4048519,260.2719,10.38795,10,1384265453,-0.1604004,-0.7551727,-0.2746582,16.65783,-33.22715,-10.54972,242.9025,242.5587,25,0.0.0.0,10.139.171.151,1,0
2013-11-12 15:13:20.834,78,7.8,52.17019,4.457894,0,0.4048519,260.2719,10.38795,10,1384265453,-0.2854004,-0.7491302,-0.4231415,17.04337,-33.94012,-9.229019,242.9598,242.6161,25,0.0.0.0,10.139.171.151,1,0
2013-11-12 15:13:21.167,79,7.9,52.17019,4.457894,0,0.4048519,260.2719,10.38795,10,1384265453,-0.174057,-0.8970795,-0.5459595,16.87814,-31.58183,-7.334099,240.5056,240.1619,25,0.0.0.0,10.139.171.151,1,0
2013-11-12 15:13:21.398,80,8,52.17019,4.457894,0,0.4048519,260.2719,10.38795,10,1384265453,-0.1026917,-0.8368378,-0.6451416,19.41173,-28.94933,-5.381752,240.5295,240.1857,25,0.0.0.0,10.139.171.151,1,0
2013-11-12 15:13:21.578,81,8.1,52.17019,4.457894,0,0.4048519,260.2719,10.38795,10,1384265453,-0.1400299,-0.8645782,-0.6598206,18.75079,-29.49777,-5.266914,240.4803,240.1366,25,0.0.0.0,10.139.171.151,1,0
2013-11-12 15:13:21.836,82,8.2,52.17019,4.457894,0,0.4048519,260.2719,10.38795,10,1384265453,-0.3714752,-0.766983,-0.6434631,19.02618,-28.67511,-7.046989,244.573,244.2293,25,0.0.0.0,10.139.171.151,1,0
2013-11-12 15:13:22.152,83,8.3,52.17019,4.457894,0,0.4048519,260.2719,10.38795,10,1384265453,-0.2761841,-0.7804108,-0.6226044,17.92462,-29.55261,-8.769646,245.4502,245.1065,25,0.0.0.0,10.139.171.151,1,0
2013-11-12 15:13:22.346,84,8.400001,52.17019,4.457894,0,0.4048519,260.2719,10.38795,10,1384265453,-0.2374573,-0.8189545,-0.5843964,17.59415,-30.21074,-11.29621,248.2292,247.8855,25,0.0.0.0,10.139.171.151,1,0
2013-11-12 15:13:22.575,85,8.5,52.17019,4.457894,0,0.4048519,260.2719,10.38795,10,1384265453,-0.1437225,-0.8386078,-0.606369,16.49259,-31.63667,-10.4923,248.2326,247.8889,25,0.0.0.0,10.139.171.151,1,0
2013-11-12 15:13:22.848,86,8.6,52.17019,4.457894,0,0.4048519,260.2719,10.38795,10,1384265453,-0.141098,-0.7933502,-0.5675201,16.32736,-30.26558,-10.09035,246.499,246.1553,25,0.0.0.0,10.139.171.151,1,0
2013-11-12 15:13:23.152,87,8.7,52.1702,4.457847,0,0.6311606,269.0268,10.32767,10,1384265454,-0.1248016,-0.7948761,-0.5908051,17.09845,-31.47215,-8.712227,246.638,246.2943,25,0.0.0.0,10.139.171.151,1,0
2013-11-12 15:13:23.295,88,8.8,52.1702,4.457847,0,0.6311606,269.0268,10.32767,10,1384265454,-0.05949402,-0.7824249,-0.583786,17.42892,-32.56902,-8.712227,243.8439,243.5002,25,0.0.0.0,10.139.171.151,1,0
2013-11-12 15:13:23.406,89,8.900001,52.1702,4.457847,0,0.6311606,269.0268,10.32767,10,1384265454,-0.05505371,-0.6128387,-0.5170288,17.9797,-32.67871,-10.43488,246.6364,246.2927,25,0.0.0.0,10.139.171.151,1,0
2013-11-12 15:13:23.536,90,9,52.1702,4.457847,0,0.6311606,269.0268,10.32767,10,1384265454,-0.1270447,-0.7801208,-0.5869751,17.15353,-31.63668,-11.41105,249.003,248.6593,25,0.0.0.0,10.139.171.151,1,0
2013-11-12 15:13:23.648,91,9.1,52.1702,4.457847,0,0.6311606,269.0268,10.32767,10,1384265454,0.005249023,-0.869751,-0.5901031,15.00548,-30.48495,-12.27238,250.8976,250.5539,25,0.0.0.0,10.139.171.151,1,0
2013-11-12 15:13:23.792,92,9.2,52.1702,4.457847,0,0.6311606,269.0268,10.32767,10,1384265454,0.0189209,-0.7446899,-0.4530945,16.43751,-30.70433,-10.20519,248.9425,248.5988,25,0.0.0.0,10.139.171.151,1,0
2013-11-12 15:13:24.085,93,9.3,52.1702,4.457847,0,0.6311606,269.0268,10.32767,10,1384265454,-0.1509705,-0.8382416,-0.4739838,16.54767,-29.27839,-10.32004,248.8876,248.5439,25,0.0.0.0,10.139.171.151,1,0
2013-11-12 15:13:24.226,94,9.400001,52.1702,4.457847,0,0.6311606,269.0268,10.32767,10,1384265454,-0.2957153,-0.8351288,-0.4463196,15.99689,-28.40089,-8.827065,245.801,245.4572,25,0.0.0.0,10.139.171.151,1,0
2013-11-12 15:13:24.367,95,9.5,52.1702,4.457847,0,0.6311606,269.0268,10.32767,10,1384265454,-0.3327026,-0.7972565,-0.4456024,16.49259,-29.55261,-10.83683,248.818,248.4743,25,0.0.0.0,10.139.171.151,1,0
2013-11-12 15:13:24.537,96,9.6,52.1702,4.4578,0,0.8772782,277.7885,10.34099,10,1384265455,-0.3239441,-0.8790588,-0.5047455,16.27228,-30.64949,-11.98527,249.8419,249.4982,25,0.0.0.0,10.139.171.151,1,0
2013-11-12 15:13:25.077,97,9.7,52.1702,4.4578,0,0.8772782,277.7885,10.34099,10,1384265455,-0.3014679,-0.8834991,-0.4053497,16.27228,-32.07542,-9.573555,241.9829,241.6392,25,0.0.0.0,10.139.171.151,1,0
2013-11-12 15:13:25.226,98,9.8,52.1702,4.4578,0,0.8772782,277.7885,10.34099,10,1384265455,-0.2424469,-0.9025116,-0.3222809,16.10704,-32.23996,-10.89426,242.0778,241.7341,25,0.0.0.0,10.139.171.151,1,0
2013-11-12 15:13:25.349,99,9.900001,52.1702,4.4578,0,0.8772782,277.7885,10.34099,10,1384265455,-0.223587,-0.8978271,-0.5218353,15.77658,-31.8012,-12.50207,242.8601,242.5164,25,0.0.0.0,10.139.171.151,1,0
2013-11-12 15:13:25.483,100,10,52.1702,4.4578,0,0.8772782,277.7885,10.34099,10,1384265455,-0.2362061,-0.8849792,-0.5335846,15.88673,-31.36246,-12.96144,243.6437,243.3,25,0.0.0.0,10.139.171.151,1,0
2013-11-12 15:13:25.600,101,10.1,52.1702,4.4578,0,0.8772782,277.7885,10.34099,10,1384265455,-0.1029205,-0.7290192,-0.5003662,16.05197,-30.97855,-14.05246,251.3817,251.0379,25,0.0.0.0,10.139.171.151,1,0
2013-11-12 15:13:25.731,102,10.2,52.1702,4.4578,0,0.8772782,277.7885,10.34099,10,1384265455,-0.1612244,-0.7730255,-0.6338654,16.87814,-30.92371,-12.50207,249.6839,249.3402,25,0.0.0.0,10.139.171.151,1,0
2013-11-12 15:13:26.036,103,10.3,52.1702,4.4578,0,0.8772782,277.7885,10.34099,10,1384265455,-0.06004333,-0.8223877,-0.68396,16.93322,-30.10105,-12.78918,250.0996,249.7559,25,0.0.0.0,10.139.171.151,1,0
2013-11-12 15:13:26.174,104,10.4,52.17021,4.457747,0,1.11132,280.1362,10.35613,10,1384265456,-0.1483154,-0.9023132,-0.7454224,17.31876,-29.71714,-13.19113,251.9,251.5563,25,0.0.0.0,10.139.171.151,1,0
2013-11-12 15:13:26.474,105,10.5,52.17021,4.457747,0,1.11132,280.1362,10.35613,10,1384265456,-0.1128845,-0.6858215,-0.6115112,16.2172,-29.38808,-13.53566,253.1417,252.798,25,0.0.0.0,10.139.171.151,1,0
2013-11-12 15:13:26.660,106,10.6,52.17021,4.457747,0,1.11132,280.1362,10.35613,10,1384265456,0.04170227,-0.5712585,-0.6783752,14.56486,-31.8012,-15.37316,253.3573,253.0136,25,0.0.0.0,10.139.171.151,1,0
2013-11-12 15:13:26.809,107,10.7,52.17021,4.457747,0,1.11132,280.1362,10.35613,10,1384265456,-0.06666565,-0.8204651,-0.6995697,13.73868,-31.96574,-14.74152,249.5673,249.2236,25,0.0.0.0,10.139.171.151,1,0
2013-11-12 15:13:27.109,108,10.8,52.17021,4.457747,0,1.11132,280.1362,10.35613,10,1384265456,-0.3312378,-0.9121857,-0.6185913,13.90392,-31.47215,-13.99503,249.646,249.3022,25,0.0.0.0,10.139.171.151,1,0
2013-11-12 15:13:27.448,109,10.9,52.17021,4.457747,0,1.11132,280.1362,10.35613,10,1384265456,-0.06756592,-0.7533875,-0.4154663,13.40821,-32.51417,-14.1673,247.2777,246.934,25,0.0.0.0,10.139.171.151,1,0
2013-11-12 15:13:27.862,110,11,52.17021,4.457747,0,1.11132,280.1362,10.35613,10,1384265456,-0.1979828,-0.9467621,-0.4738922,14.39962,-32.40448,-14.97121,247.3402,246.9965,25,0.0.0.0,10.139.171.151,1,0
2013-11-12 15:13:28.183,111,11.1,52.17021,4.457747,0,1.11132,280.1362,10.35613,10,1384265456,-0.1704559,-0.8995972,-0.4914093,15.28087,-33.72073,-14.62668,247.3805,247.0368,25,0.0.0.0,10.139.171.151,1,0
2013-11-12 15:13:28.383,112,11.2,52.17021,4.457747,0,1.11132,280.1362,10.35613,10,1384265456,-0.1577301,-0.8425903,-0.4272614,15.00548,-31.47215,-12.73176,246.3895,246.0457,25,0.0.0.0,10.139.171.151,1,0
2013-11-12 15:13:28.637,113,11.3,52.17022,4.457695,0,1.351447,278.5239,10.36855,10,1384265457,-0.2241974,-0.920929,-0.4828033,16.60275,-30.32043,-13.59309,246.495,246.1513,25,0.0.0.0,10.139.171.151,1,0
2013-11-12 15:13:28.764,114,11.4,52.17022,4.457695,0,1.351447,278.5239,10.36855,10,1384265457,-0.2035065,-0.8732147,-0.4565735,16.93322,-28.89449,-11.52589,248.0815,247.7378,25,0.0.0.0,10.139.171.151,1,0
2013-11-12 15:13:29.077,115,11.5,52.17022,4.457695,0,1.351447,278.5239,10.36855,10,1384265457,-0.1334076,-0.7880554,-0.6123047,16.27228,-30.86886,-12.55949,250.0418,249.698,25,0.0.0.0,10.139.171.151,1,0
2013-11-12 15:13:29.195,116,11.6,52.17022,4.457695,0,1.351447,278.5239,10.36855,10,1384265457,-0.3117065,-1.071442,-0.5704041,15.88673,-30.59465,-13.30598,247.945,247.6012,25,0.0.0.0,10.139.171.151,1,0
2013-11-12 15:13:29.336,117,11.7,52.17022,4.457695,0,1.351447,278.5239,10.36855,10,1384265457,-0.1577148,-0.6726379,-0.4384308,14.89532,-30.26558,-14.33957,249.9277,249.584,25,0.0.0.0,10.139.171.151,1,0
2013-11-12 15:13:29.416,118,11.8,52.17022,4.457695,0,1.351447,278.5239,10.36855,10,1384265457,-0.09541321,-0.7158356,-0.5402832,14.61993,-31.74636,-16.80871,251.3506,251.0069,25,0.0.0.0,10.139.171.151,1,0
2013-11-12 15:13:29.536,119,11.9,52.17022,4.457695,0,1.351447,278.5239,10.36855,10,1384265457,-0.2962036,-0.9863281,-0.6338348,14.4547,-31.58183,-15.02863,249.9381,249.5944,25,0.0.0.0,10.139.171.151,1,0
2013-11-12 15:13:29.651,120,12,52.17022,4.457695,0,1.351447,278.5239,10.36855,10,1384265457,-0.1073303,-0.7089996,-0.6756897,16.05197,-30.43011,-13.01887,248.3215,247.9778,25,0.0.0.0,10.139.171.151,1,0
2013-11-12 15:13:29.864,121,12.1,52.17023,4.45764,0,1.610431,278.9654,10.41525,10,1384265458,-0.2850189,-0.8048859,-0.6478882,16.98829,-29.93652,-11.58332,247.5569,247.2132,25,0.0.0.0,10.139.171.151,1,0
2013-11-12 15:13:30.145,122,12.2,52.17023,4.45764,0,1.610431,278.9654,10.41525,10,1384265458,-0.2927094,-0.7579346,-0.6567993,16.43751,-29.38808,-14.22472,251.1396,250.7959,25,0.0.0.0,10.139.171.151,1,0
2013-11-12 15:13:30.325,123,12.3,52.17023,4.45764,0,1.610431,278.9654,10.41525,10,1384265458,-0.1863098,-0.7606506,-0.6184082,15.50118,-31.30761,-13.24855,250.9486,250.6049,25,0.0.0.0,10.139.171.151,1,0
2013-11-12 15:13:30.535,124,12.4,52.17023,4.45764,0,1.610431,278.9654,10.41525,10,1384265458,-0.2341614,-0.7965088,-0.5795593,15.61134,-31.08824,-14.28214,249.9311,249.5874,25,0.0.0.0,10.139.171.151,1,0
2013-11-12 15:13:30.715,125,12.5,52.17023,4.45764,0,1.610431,278.9654,10.41525,10,1384265458,-0.1489716,-0.82164,-0.5772095,14.17931,-31.08824,-17.26808,250.0809,249.7372,25,0.0.0.0,10.139.171.151,1,0
2013-11-12 15:13:30.841,126,12.6,52.17023,4.45764,0,1.610431,278.9654,10.41525,10,1384265458,-0.1804657,-0.8255005,-0.5364532,13.13282,-32.23996,-17.21066,250.7389,250.3952,25,0.0.0.0,10.139.171.151,1,0
2013-11-12 15:13:31.102,127,12.7,52.17023,4.45764,0,1.610431,278.9654,10.41525,10,1384265458,-0.1658325,-0.758316,-0.5316925,14.34454,-31.14308,-15.02863,250.955,250.6113,25,0.0.0.0,10.139.171.151,1,0
2013-11-12 15:13:31.251,128,12.8,52.17023,4.457572,0,1.873038,278.3107,9.557333,10,1384265459,-0.1784363,-0.6978302,-0.5679169,15.00548,-30.92371,-13.07629,250.8097,250.466,25,0.0.0.0,10.139.171.151,1,0
2013-11-12 15:13:31.409,129,12.9,52.17023,4.457572,0,1.873038,278.3107,9.557333,10,1384265459,-0.1408691,-0.7816162,-0.6756439,14.67501,-30.1559,-14.45441,250.6711,250.3274,25,0.0.0.0,10.139.171.151,1,0
2013-11-12 15:13:31.539,130,13,52.17023,4.457572,0,1.873038,278.3107,9.557333,10,1384265459,-0.1207733,-0.8550873,-0.7571411,15.66642,-31.69152,-12.50207,245.2879,244.9441,25,0.0.0.0,10.139.171.151,1,0
2013-11-12 15:13:31.640,131,13.1,52.17023,4.457572,0,1.873038,278.3107,9.557333,10,1384265459,-0.2227936,-0.7013397,-0.6216431,15.66642,-31.69152,-13.99503,247.4483,247.1045,25,0.0.0.0,10.139.171.151,1,0
2013-11-12 15:13:31.793,132,13.2,52.17023,4.457572,0,1.873038,278.3107,9.557333,10,1384265459,-0.1113892,-0.7896881,-0.6375122,15.83165,-31.96574,-15.31574,247.7778,247.4341,25,0.0.0.0,10.139.171.151,1,0
2013-11-12 15:13:32.067,133,13.3,52.17023,4.457572,0,1.873038,278.3107,9.557333,10,1384265459,-0.068573,-0.756012,-0.599472,15.77658,-30.1559,-13.76535,249.1483,248.8046,25,0.0.0.0,10.139.171.151,1,0
2013-11-12 15:13:32.212,134,13.4,52.17023,4.457572,0,1.873038,278.3107,9.557333,10,1384265459,-0.1595612,-0.8193207,-0.5616913,16.82306,-28.34605,-14.1673,249.5246,249.1809,25,0.0.0.0,10.139.171.151,1,0
2013-11-12 15:13:32.403,135,13.5,52.17024,4.457497,0,2.147263,272.0573,9,10,1384265460,-0.1657715,-0.8920441,-0.51091,16.54767,-27.96214,-13.8802,255.0899,254.7462,25,0.0.0.0,10.139.171.151,1,0
2013-11-12 15:13:32.575,136,13.6,52.17024,4.457497,0,2.147263,272.0573,9,10,1384265460,-0.1607513,-0.7992859,-0.4011078,16.05197,-28.12667,-14.62668,257.4336,257.0898,25,0.0.0.0,10.139.171.151,1,0
2013-11-12 15:13:32.752,137,13.7,52.17024,4.457497,0,2.147263,272.0573,9,10,1384265460,-0.3589935,-0.9701996,-0.5007324,15.77658,-29.82683,-15.94738,257.4801,257.1364,25,0.0.0.0,10.139.171.151,1,0
2013-11-12 15:13:32.952,138,13.8,52.17024,4.457497,0,2.147263,272.0573,9,10,1384265460,-0.3126526,-0.8743744,-0.5008087,14.78517,-30.59465,-16.29191,257.3701,257.0264,25,0.0.0.0,10.139.171.151,1,0
2013-11-12 15:13:33.094,139,13.9,52.17024,4.457497,0,2.147263,272.0573,9,10,1384265460,-0.3134918,-0.9035187,-0.5912628,14.39962,-29.77199,-16.46418,257.3556,257.0119,25,0.0.0.0,10.139.171.151,1,0
2013-11-12 15:13:33.205,140,14,52.17024,4.457497,0,2.147263,272.0573,9,10,1384265460,-0.2969818,-0.7101746,-0.5742035,14.12423,-30.26558,-16.75129,259.1341,258.7904,25,0.0.0.0,10.139.171.151,1,0
2013-11-12 15:13:33.319,141,14.1,52.17024,4.457497,0,2.147263,272.0573,9,10,1384265460,-0.2496643,-0.7797546,-0.5991516,13.959,-30.97855,-17.8423,259.2116,258.8679,25,0.0.0.0,10.139.171.151,1,0
2013-11-12 15:13:33.432,142,14.2,52.17024,4.457497,0,2.147263,272.0573,9,10,1384265460,-0.2344513,-0.8426666,-0.4966888,13.24298,-30.70433,-17.55519,259.4769,259.1331,25,0.0.0.0,10.139.171.151,1,0
2013-11-12 15:13:33.581,143,14.3,52.17024,4.457497,0,2.147263,272.0573,9,10,1384265460,-0.0246582,-0.8085785,-0.3723145,13.84884,-30.64949,-17.0384,258.6301,258.2863,25,0.0.0.0,10.139.171.151,1,0
2013-11-12 15:13:33.697,144,14.4,52.17024,4.457497,0,2.147263,272.0573,9,10,1384265460,-0.1645203,-0.9178925,-0.447525,15.17072,-29.88167,-14.51183,255.3806,255.0369,25,0.0.0.0,10.139.171.151,1,0
2013-11-12 15:13:33.826,145,14.5,52.17024,4.457497,0,2.147263,272.0573,9,10,1384265460,-0.2134552,-0.8264618,-0.3885651,15.66642,-30.0462,-15.37316,256.9448,256.6011,25,0.0.0.0,10.139.171.151,1,0
2013-11-12 15:13:34.089,146,14.6,52.17025,4.45743,0,2.374629,281.153,9,10,1384265461,-0.04718018,-0.6256256,-0.5091705,14.67501,-31.58183,-15.14347,254.5166,254.1729,25,0.0.0.0,10.139.171.151,1,0
2013-11-12 15:13:34.233,147,14.7,52.17025,4.45743,0,2.374629,281.153,9,10,1384265461,0.001983643,-0.6978912,-0.7220001,15.11564,-30.59465,-16.29191,257.1754,256.8317,25,0.0.0.0,10.139.171.151,1,0
2013-11-12 15:13:34.867,148,14.8,52.17025,4.45743,0,2.374629,281.153,9,10,1384265461,-0.09611511,-0.967514,-0.8170929,13.84884,-28.89449,-15.43058,258.7367,258.393,25,0.0.0.0,10.139.171.151,1,0
2013-11-12 15:13:35.128,149,14.9,52.17025,4.45743,0,2.374629,281.153,9,10,1384265461,-0.003952026,-0.7113342,-0.5993347,14.01407,-31.03339,-15.94738,255.6048,255.2611,25,0.0.0.0,10.139.171.151,1,0
2013-11-12 15:13:35.274,150,15,52.17025,4.45743,0,2.374629,281.153,9,10,1384265461,0.01235962,-0.7483673,-0.6595154,14.06915,-31.74636,-16.92355,255.0936,254.7498,25,0.0.0.0,10.139.171.151,1,0
2013-11-12 15:13:35.420,151,15.1,52.17027,4.457357,0,2.594114,284.772,9,10,1384265462,-0.09564209,-0.8134766,-0.6393433,14.12423,-32.13026,-15.71769,251.8488,251.5051,25,0.0.0.0,10.139.171.151,1,0
2013-11-12 15:13:35.566,152,15.2,52.17027,4.457357,0,2.594114,284.772,9,10,1384265462,0.04307556,-0.6935577,-0.5826416,15.55626,-31.25277,-13.8802,250.4692,250.1255,25,0.0.0.0,10.139.171.151,1,0
2013-11-12 15:13:35.761,153,15.3,52.17027,4.457357,0,2.594114,284.772,9,10,1384265462,-0.1181641,-0.7332764,-0.6834412,16.49259,-32.51417,-16.80871,252.6234,252.2797,25,0.0.0.0,10.139.171.151,1,0
2013-11-12 15:13:36.113,154,15.4,52.17027,4.457357,0,2.594114,284.772,9,10,1384265462,-0.04678345,-0.8636169,-0.6750641,14.84025,-31.96574,-16.92355,253.0884,252.7447,25,0.0.0.0,10.139.171.151,1,0
2013-11-12 15:13:36.319,155,15.5,52.17027,4.457357,0,2.594114,284.772,9,10,1384265462,-0.1382294,-0.7476807,-0.5900269,15.83165,-31.85605,-14.97121,254.3237,253.98,25,0.0.0.0,10.139.171.151,1,0
2013-11-12 15:13:36.519,156,15.6,52.17027,4.457357,0,2.594114,284.772,9,10,1384265462,-0.1382294,-0.7476807,-0.5900269,15.17072,-31.63668,-14.85636,253.1329,252.7892,25,0.0.0.0,10.139.171.151,1,0
2013-11-12 15:13:36.695,157,15.7,52.17027,4.457357,0,2.594114,284.772,9,10,1384265462,-0.1492767,-0.8088989,-0.5743408,15.7215,-30.86886,-16.46418,256.8894,256.5457,25,0.0.0.0,10.139.171.151,1,0
2013-11-12 15:13:36.825,158,15.8,52.17027,4.457357,0,2.594114,284.772,9,10,1384265462,-0.1503601,-0.8123779,-0.5285645,15.50118,-33.1723,-14.85636,256.6649,256.3212,25,0.0.0.0,10.139.171.151,1,0
2013-11-12 15:13:37.061,159,15.9,52.17027,4.457357,0,2.594114,284.772,9,10,1384265462,-0.1580505,-0.7728729,-0.5014496,15.55626,-33.66589,-13.53566,255.9326,255.5889,25,0.0.0.0,10.139.171.151,1,0
2013-11-12 15:13:37.361,160,16,52.17028,4.457277,0,2.823155,283.8668,9,10,1384265463,-0.1830902,-0.8754425,-0.5489807,15.83165,-33.06261,-14.51183,255.4831,255.1393,25,0.0.0.0,10.139.171.151,1,0
2013-11-12 15:13:37.545,161,16.1,52.17028,4.457277,0,2.823155,283.8668,9,10,1384265463,-0.1754761,-0.8746338,-0.5538177,14.39962,-32.40449,-15.43058,255.2486,254.9049,25,0.0.0.0,10.139.171.151,1,0
2013-11-12 15:13:37.818,162,16.2,52.17028,4.457277,0,2.823155,283.8668,9,10,1384265463,-0.2142792,-0.8742523,-0.5958405,12.96759,-31.52699,-15.88996,255.0422,254.6985,25,0.0.0.0,10.139.171.151,1,0
2013-11-12 15:13:38.239,163,16.3,52.17028,4.457277,0,2.823155,283.8668,9,10,1384265463,-0.1801605,-0.8335876,-0.5646362,14.61993,-31.74636,-15.31574,252.9361,252.5924,25,0.0.0.0,10.139.171.151,1,0
2013-11-12 15:13:38.466,164,16.4,52.17028,4.457277,0,2.823155,283.8668,9,10,1384265463,-0.13797,-0.7762451,-0.505249,14.56486,-31.36246,-15.37316,254.1501,253.8064,25,0.0.0.0,10.139.171.151,1,0
2013-11-12 15:13:38.719,165,16.5,52.17028,4.457277,0,2.823155,283.8668,9,10,1384265463,-0.1567688,-0.8612976,-0.5489044,14.61993,-31.19793,-16.11964,255.7903,255.4465,25,0.0.0.0,10.139.171.151,1,0
2013-11-12 15:13:39.070,166,16.6,52.17028,4.457277,0,2.823155,283.8668,9,10,1384265463,-0.1112823,-0.8628082,-0.5088043,15.06056,-31.96574,-15.66027,252.891,252.5473,25,0.0.0.0,10.139.171.151,1,0
2013-11-12 15:13:39.223,167,16.7,52.17028,4.457277,0,2.823155,283.8668,9,10,1384265463,-0.1193848,-0.83461,-0.5420074,14.78517,-31.36245,-16.5216,255.9789,255.6351,25,0.0.0.0,10.139.171.151,1,0
2013-11-12 15:13:39.389,168,16.8,52.17029,4.457177,0.1860199,3.057136,280.4666,9,10,1384265464,-0.1308289,-0.8315125,-0.5488892,14.39962,-30.32042,-15.54543,255.1088,254.7651,25,0.0.0.0,10.139.171.151,1,0
2013-11-12 15:13:39.562,169,16.9,52.17029,4.457177,0.1860199,3.057136,280.4666,9,10,1384265464,-0.143219,-0.8283844,-0.5557556,14.89532,-31.03339,-15.71769,253.751,253.4073,25,0.0.0.0,10.139.171.151,1,0
2013-11-12 15:13:39.819,170,17,52.17029,4.457177,0.1860199,3.057136,280.4666,9,10,1384265464,-0.1723633,-0.8321991,-0.6103973,15.50118,-30.43011,-14.28214,253.7589,253.4152,25,0.0.0.0,10.139.171.151,1,0
2013-11-12 15:13:40.251,171,17.1,52.17029,4.457177,0.1860199,3.057136,280.4666,9,10,1384265464,-0.1062164,-0.8970947,-0.6157837,15.66642,-30.70433,-15.14347,253.0874,252.7437,25,0.0.0.0,10.139.171.151,1,0
2013-11-12 15:13:40.438,172,17.2,52.17029,4.457177,0.1860199,3.057136,280.4666,9,10,1384265464,-0.1718292,-0.7052917,-0.5153046,15.99689,-30.04621,-16.29191,253.2673,252.9236,25,0.0.0.0,10.139.171.151,1,0
2013-11-12 15:13:40.579,173,17.3,52.17029,4.457177,0.1860199,3.057136,280.4666,9,10,1384265464,-0.2314606,-0.9559784,-0.5937347,14.67501,-30.59465,-14.91379,253.1938,252.8501,25,0.0.0.0,10.139.171.151,1,0
2013-11-12 15:13:40.753,174,17.4,52.17029,4.457177,0.1860199,3.057136,280.4666,9,10,1384265464,-0.1678619,-0.7954102,-0.52771,14.78517,-29.82683,-14.91379,254.1544,253.8107,25,0.0.0.0,10.139.171.151,1,0
2013-11-12 15:13:40.930,175,17.5,52.17029,4.457177,0.1860199,3.057136,280.4666,9,10,1384265464,-0.1714783,-0.714386,-0.5483704,16.54767,-29.60746,-13.30598,254.4582,254.1145,25,0.0.0.0,10.139.171.151,1,0
2013-11-12 15:13:41.166,176,17.6,52.1703,4.457092,0,3.276255,277.9945,9,10,1384265465,-0.2097931,-0.8775635,-0.5198669,17.64923,-31.03339,-13.53566,251.9364,251.5927,25,0.0.0.0,10.139.171.151,1,0
2013-11-12 15:13:41.351,177,17.7,52.1703,4.457092,0,3.276255,277.9945,9,10,1384265465,-0.2097931,-0.8775635,-0.5198669,18.4754,-30.86886,-13.82277,253.0369,252.6932,25,0.0.0.0,10.139.171.151,1,0
2013-11-12 15:13:41.497,178,17.8,52.1703,4.457092,0,3.276255,277.9945,9,10,1384265465,-0.1307983,-0.7783356,-0.3961792,18.4754,-31.4173,-13.3634,251.4304,251.0867,25,0.0.0.0,10.139.171.151,1,0
2013-11-12 15:13:41.696,179,17.9,52.1703,4.457092,0,3.276255,277.9945,9,10,1384265465,-0.123291,-0.7858276,-0.3425903,17.92462,-32.51417,-13.01887,249.5551,249.2113,25,0.0.0.0,10.139.171.151,1,0
2013-11-12 15:13:41.953,180,18,52.1703,4.457092,0,3.276255,277.9945,9,10,1384265465,-0.2537689,-0.9678497,-0.441925,16.93322,-31.74636,-15.43058,253.8705,253.5268,25,0.0.0.0,10.139.171.151,1,0
2013-11-12 15:13:42.234,181,18.1,52.1703,4.457092,0,3.276255,277.9945,9,10,1384265465,-0.2258301,-1.053116,-0.5155792,16.27228,-31.08824,-14.85636,253.0806,252.7369,25,0.0.0.0,10.139.171.151,1,0
2013-11-12 15:13:42.418,182,18.2,52.1703,4.457092,0,3.276255,277.9945,9,10,1384265465,-0.08947754,-0.7958832,-0.4076385,16.60275,-31.08824,-15.2009,253.8483,253.5046,25,0.0.0.0,10.139.171.151,1,0
2013-11-12 15:13:42.595,183,18.3,52.1703,4.457092,0,3.276255,277.9945,9,10,1384265465,-0.1972198,-0.8435822,-0.7341156,16.10704,-31.69152,-13.76535,250.4146,250.0708,25,0.0.0.0,10.139.171.151,1,0
2013-11-12 15:13:42.775,184,18.4,52.1703,4.457092,0,3.276255,277.9945,9,10,1384265465,-0.04347229,-0.8421478,-0.6721649,15.88673,-32.78839,-13.53566,248.3226,247.9789,25,0.0.0.0,10.139.171.151,1,0
2013-11-12 15:13:43.002,185,18.5,52.17031,4.457003,0.4037361,3.490365,279.9574,9,10,1384265466,-0.02325439,-0.6778107,-0.4972534,16.38243,-32.62386,-13.13371,248.0561,247.7123,25,0.0.0.0,10.139.171.151,1,0
2013-11-12 15:13:43.155,186,18.6,52.17031,4.457003,0.4037361,3.490365,279.9574,9,10,1384265466,-0.2011414,-0.5406799,-0.5314331,14.50978,-32.07542,-12.44465,245.6433,245.2996,25,0.0.0.0,10.139.171.151,1,0
2013-11-12 15:13:43.300,187,18.7,52.17031,4.457003,0.4037361,3.490365,279.9574,9,10,1384265466,0.04084778,-1.114105,-0.7314758,13.46329,-32.45933,-13.53566,245.726,245.3822,25,0.0.0.0,10.139.171.151,1,0
2013-11-12 15:13:43.434,188,18.8,52.17031,4.457003,0.4037361,3.490365,279.9574,9,10,1384265466,-0.19841,-0.6517029,-0.3734131,14.17931,-29.99136,-13.3634,249.215,248.8713,25,0.0.0.0,10.139.171.151,1,0
2013-11-12 15:13:43.546,189,18.9,52.17031,4.457003,0.4037361,3.490365,279.9574,9,10,1384265466,-0.1256561,-1.000519,-0.6399384,15.55626,-28.72995,-14.79894,252.8681,252.5244,25,0.0.0.0,10.139.171.151,1,0
2013-11-12 15:13:43.669,190,19,52.17031,4.457003,0.4037361,3.490365,279.9574,9,10,1384265466,-0.1608734,-0.8064575,-0.5471191,14.9504,-28.23636,-14.39699,253.0346,252.6909,25,0.0.0.0,10.139.171.151,1,0
2013-11-12 15:13:43.830,191,19.1,52.17031,4.457003,0.4037361,3.490365,279.9574,9,10,1384265466,-0.1601715,-0.726593,-0.466507,15.88673,-27.52339,-17.78488,254.044,253.7002,25,0.0.0.0,10.139.171.151,1,0
2013-11-12 15:13:44.082,192,19.2,52.17031,4.457003,0.4037361,3.490365,279.9574,9,10,1384265466,-0.1442413,-0.8796387,-0.4972076,16.38243,-31.52699,-17.0384,256.5768,256.233,25,0.0.0.0,10.139.171.151,1,0
2013-11-12 15:13:44.436,193,19.3,52.17031,4.457003,0.4037361,3.490365,279.9574,9,10,1384265466,-0.2266083,-0.824646,-0.4324493,17.09845,-31.36245,-18.12941,259.0423,258.6986,25,0.0.0.0,10.139.171.151,1,0
2013-11-12 15:13:44.739,194,19.4,52.17031,4.456917,0,3.699914,281.3183,9,10,1384265467,-0.2149963,-0.8056488,-0.3574982,17.75939,-32.78839,-15.83253,253.6644,253.3207,25,0.0.0.0,10.139.171.151,1,0
2013-11-12 15:13:45.207,195,19.5,52.17031,4.456917,0,3.699914,281.3183,9,10,1384265467,-0.2615356,-0.7292175,-0.3305969,21.55978,-34.15949,-13.3634,250.2009,249.8572,25,0.0.0.0,10.139.171.151,1,0
2013-11-12 15:13:45.657,196,19.6,52.17031,4.456917,0,3.699914,281.3183,9,10,1384265467,-0.2519989,-0.7985687,-0.4141083,16.82306,-31.63667,-14.51183,252.5525,252.2088,25,0.0.0.0,10.139.171.151,1,0
2013-11-12 15:13:46.042,197,19.7,52.17031,4.456917,0,3.699914,281.3183,9,10,1384265467,-0.08259583,-0.7748871,-0.5595551,15.94181,-31.85605,-17.0384,252.3846,252.0409,25,0.0.0.0,10.139.171.151,1,0
2013-11-12 15:13:46.244,198,19.8,52.17031,4.456917,0,3.699914,281.3183,9,10,1384265467,-0.08259583,-0.7748871,-0.5595551,16.43751,-31.91089,-17.44035,252.559,252.2153,25,0.0.0.0,10.139.171.151,1,0
2013-11-12 15:13:46.402,199,19.9,52.17031,4.456917,0,3.699914,281.3183,9,10,1384265467,-0.2639923,-0.9970398,-0.5577393,17.42892,-31.0334,-17.55519,256.6356,256.2918,25,0.0.0.0,10.139.171.151,1,0
2013-11-12 15:13:46.533,200,20,52.17033,4.456831,0,3.888536,285.2214,9,5,1384265469,-0.200592,-0.784668,-0.4937897,16.93322,-31.96574,-16.80871,253.3938,253.0501,25,0.0.0.0,10.139.171.151,1,0
2013-11-12 15:13:46.713,201,20.1,52.17033,4.456831,0,3.888536,285.2214,9,5,1384265469,-0.2326202,-0.8285065,-0.5502625,17.53907,-31.14308,-17.89973,257.047,256.7032,25,0.0.0.0,10.139.171.151,1,0
2013-11-12 15:13:46.803,202,20.2,52.17033,4.456831,0,3.888536,285.2214,9,5,1384265469,-0.1610107,-0.8874664,-0.5352173,16.76798,-30.81402,-17.67004,256.7111,256.3673,25,0.0.0.0,10.139.171.151,1,0
2013-11-12 15:13:47.043,203,20.3,52.17033,4.456831,0,3.888536,285.2214,9,5,1384265469,-0.1438751,-0.7664032,-0.5091858,16.60275,-31.74636,-18.99074,256.9286,256.5848,25,0.0.0.0,10.139.171.151,1,0
2013-11-12 15:13:47.155,204,20.4,52.17033,4.456831,0,3.888536,285.2214,9,5,1384265469,-0.07081604,-0.8682861,-0.5962524,15.00548,-31.36246,-18.58878,256.834,256.4902,25,0.0.0.0,10.139.171.151,1,0
2013-11-12 15:13:47.371,205,20.5,52.17033,4.456831,0,3.888536,285.2214,9,5,1384265469,-0.03399658,-0.6630249,-0.5080566,15.06056,-32.73355,-16.46418,255.88,255.5363,25,0.0.0.0,10.139.171.151,1,0
2013-11-12 15:13:47.500,206,20.6,52.17033,4.456831,0,3.888536,285.2214,9,5,1384265469,-0.1584778,-0.7775421,-0.5861206,16.10704,-32.02058,-16.98097,255.3387,254.9949,25,0.0.0.0,10.139.171.151,1,0
2013-11-12 15:13:47.616,207,20.7,52.17035,4.456752,0,4.047452,285.5426,9,5,1384265469,-0.1256104,-0.7960358,-0.6151581,16.49259,-31.85605,-15.88996,254.9664,254.6227,25,0.0.0.0,10.139.171.151,1,0
2013-11-12 15:13:47.798,208,20.8,52.17035,4.456752,0,4.047452,285.5426,9,5,1384265469,-0.05886841,-0.8518677,-0.5884705,16.43751,-31.47215,-16.63644,254.632,254.2883,25,0.0.0.0,10.139.171.151,1,0
2013-11-12 15:13:48.071,209,20.9,52.17035,4.456752,0,4.047452,285.5426,9,5,1384265469,-0.104248,-0.6217346,-0.5279083,17.70431,-32.18512,-15.2009,253.8011,253.4574,25,0.0.0.0,10.139.171.151,1,0
2013-11-12 15:13:48.208,210,21,52.17035,4.456752,0,4.047452,285.5426,9,5,1384265469,-0.171463,-0.7733154,-0.4703217,17.59415,-32.2948,-15.66027,253.3104,252.9667,25,0.0.0.0,10.139.171.151,1,0
2013-11-12 15:13:48.333,211,21.1,52.17035,4.456752,0,4.047452,285.5426,9,5,1384265469,-0.2377014,-0.8100739,-0.5756378,17.9797,-33.00777,-14.79894,249.942,249.5983,25,0.0.0.0,10.139.171.151,1,0
2013-11-12 15:13:48.486,212,21.2,52.17035,4.456752,0,4.047452,285.5426,9,5,1384265469,-0.1668549,-0.839447,-0.5324554,17.42892,-31.9109,-15.83253,251.4638,251.12,25,0.0.0.0,10.139.171.151,1,0
2013-11-12 15:13:48.620,213,21.3,52.17035,4.456752,0,4.047452,285.5426,9,5,1384265469,-0.181488,-0.7506256,-0.4694672,18.20001,-31.36246,-15.14347,252.6852,252.3414,25,0.0.0.0,10.139.171.151,1,0
2013-11-12 15:13:48.769,214,21.4,52.17035,4.456752,0,4.047452,285.5426,9,5,1384265469,-0.27211,-0.8818817,-0.5940857,17.15353,-31.52699,-16.0048,252.522,252.1783,25,0.0.0.0,10.139.171.151,1,0
2013-11-12 15:13:48.991,215,21.5,52.17036,4.456674,0,4.149384,284.383,9,5,1384265470,-0.2739716,-0.7624054,-0.5710449,16.93322,-31.08824,-17.61262,252.8188,252.4751,25,0.0.0.0,10.139.171.151,1,0
2013-11-12 15:13:49.128,216,21.6,52.17036,4.456674,0,4.149384,284.383,9,5,1384265470,-0.2311249,-0.8016052,-0.5980377,16.38243,-31.63667,-16.80871,252.9572,252.6134,25,0.0.0.0,10.139.171.151,1,0
2013-11-12 15:13:49.219,217,21.7,52.17036,4.456674,0,4.149384,284.383,9,5,1384265470,-0.1596069,-0.853775,-0.5917816,16.76798,-31.58183,-15.94738,252.9098,252.566,25,0.0.0.0,10.139.171.151,1,0
2013-11-12 15:13:49.449,218,21.8,52.17036,4.456674,0,4.149384,284.383,9,5,1384265470,-0.1303406,-0.7614594,-0.5850983,16.43751,-32.02058,-16.63644,252.6512,252.3075,25,0.0.0.0,10.139.171.151,1,0
2013-11-12 15:13:49.695,219,21.9,52.17036,4.456674,0,4.149384,284.383,9,5,1384265470,-0.04754639,-0.6314545,-0.6133423,15.66642,-31.69152,-15.48801,252.44,252.0963,25,0.0.0.0,10.139.171.151,1,0
2013-11-12 15:13:50.048,220,22,52.17036,4.456674,0,4.149384,284.383,9,5,1384265470,-0.2241211,-0.7679443,-0.4228363,16.10704,-33.44651,-15.48801,252.0277,251.684,25,0.0.0.0,10.139.171.151,1,0
2013-11-12 15:13:50.228,221,22.1,52.17037,4.456604,0,4.21811,279.8967,9,5,1384265471,-0.03944397,-0.6363525,-0.4886627,17.20861,-32.23996,-15.71769,251.8218,251.4781,25,0.0.0.0,10.139.171.151,1,0
2013-11-12 15:13:50.398,222,22.2,52.17037,4.456604,0,4.21811,279.8967,9,5,1384265471,-0.1829834,-0.8410797,-0.5325165,17.53907,-32.56902,-15.02863,251.7353,251.3916,25,0.0.0.0,10.139.171.151,1,0
2013-11-12 15:13:50.590,223,22.3,52.17037,4.456604,0,4.21811,279.8967,9,5,1384265471,-0.1054077,-0.827774,-0.511795,16.2172,-32.34964,-14.6841,251.4248,251.0811,25,0.0.0.0,10.139.171.151,1,0
2013-11-12 15:13:50.732,224,22.4,52.17037,4.456604,0,4.21811,279.8967,9,5,1384265471,0.006195068,-0.8725586,-0.5716095,18.53048,-31.91089,-14.79894,251.2897,250.946,25,0.0.0.0,10.139.171.151,1,0
2013-11-12 15:13:50.839,225,22.5,52.17037,4.456604,0,4.21811,279.8967,9,5,1384265471,-0.1359558,-0.8363037,-0.4408112,18.4754,-32.07542,-14.1673,251.1616,250.8178,25,0.0.0.0,10.139.171.151,1,0
2013-11-12 15:13:51.077,226,22.6,52.17037,4.456604,0,4.21811,279.8967,9,5,1384265471,-0.1451721,-0.6657867,-0.3020935,18.08986,-32.13027,-14.22472,250.9643,250.6205,25,0.0.0.0,10.139.171.151,1,0
2013-11-12 15:13:51.215,227,22.7,52.17037,4.456604,0,4.21811,279.8967,9,5,1384265471,-0.3328552,-1.084534,-0.6599884,18.58556,-32.40449,-15.31574,250.8737,250.53,25,0.0.0.0,10.139.171.151,1,0
2013-11-12 15:13:51.322,228,22.8,52.17037,4.456604,0,4.21811,279.8967,9,5,1384265471,-0.06541443,-0.8529053,-0.6089172,17.70431,-31.4173,-16.34933,253.1326,252.7889,25,0.0.0.0,10.139.171.151,1,0
2013-11-12 15:13:51.447,229,22.9,52.17037,4.456604,0,4.21811,279.8967,9,5,1384265471,-0.111496,-0.8782196,-0.5934753,17.53907,-32.23996,-14.91379,253.5926,253.2489,25,0.0.0.0,10.139.171.151,1,0
2013-11-12 15:13:51.659,230,23,52.17038,4.456539,0,4.246826,281.1094,9,5,1384265472,-0.2041473,-0.8934021,-0.637619,17.70431,-32.40449,-16.34933,252.0801,251.7364,25,0.0.0.0,10.139.171.151,1,0
2013-11-12 15:13:51.827,231,23.1,52.17038,4.456539,0,4.246826,281.1094,9,5,1384265472,-0.215744,-0.7209473,-0.6137695,16.54767,-31.25277,-16.40675,252.148,251.8043,25,0.0.0.0,10.139.171.151,1,0
2013-11-12 15:13:52.116,232,23.2,52.17038,4.456539,0,4.246826,281.1094,9,5,1384265472,-0.2316132,-0.8594666,-0.6212769,16.98829,-32.02058,-16.5216,252.1616,251.8179,25,0.0.0.0,10.139.171.151,1,0
2013-11-12 15:13:52.483,233,23.3,52.17038,4.456539,0,4.246826,281.1094,9,5,1384265472,-0.1592407,-0.8143311,-0.6590576,16.60275,-32.40449,-16.46418,252.1473,251.8036,25,0.0.0.0,10.139.171.151,1,0
2013-11-12 15:13:52.747,234,23.4,52.17038,4.456539,0,4.246826,281.1094,9,5,1384265472,-0.2100677,-1.029221,-0.7570343,16.10704,-32.45933,-15.71769,252.0706,251.7269,25,0.0.0.0,10.139.171.151,1,0
2013-11-12 15:13:53.086,235,23.5,52.17038,4.456539,0,4.246826,281.1094,9,5,1384265472,-0.06799316,-0.692688,-0.6210632,16.43751,-33.11746,-15.14347,251.6724,251.3287,25,0.0.0.0,10.139.171.151,1,0
2013-11-12 15:13:53.381,236,23.6,52.17038,4.456478,0,4.253752,280.902,9,5,1384265473,-0.331543,-0.9162903,-0.5319214,16.43751,-32.02058,-16.40675,251.6242,251.2804,25,0.0.0.0,10.139.171.151,1,0
