time,timestamp,recordtime,lat,long,alt,speed,course,verticalAccuracy,horizontalAccuracy,locTimeStamp,accelerationX,accelerationY,accelerationZ,HeadingX,HeadingY,HeadingZ,TrueHeading,MagneticHeading,HeadingAccuracy,en0,pdp_ip0,DeviceOrientation,Event
2013-11-12 15:10:49.094,1,0.1,52.1696,4.458416,0,0.5589796,321.3637,9.5,5,1384265357,-0.1296844,-0.7161102,-0.5365295,2.531582,-29.16127,-40.57406,328.9011,328.5573,25,0.0.0.0,10.139.171.151,1,0
2013-11-12 15:10:49.213,2,0.2,52.16961,4.458413,0,0.5488605,336.0615,9.5,5,1384265358,-0.196167,-0.8878021,-0.5412292,2.586657,-28.88725,-40.63131,328.5829,328.2392,25,0.0.0.0,10.139.171.151,1,0
2013-11-12 15:10:49.301,3,0.3,52.16961,4.458413,0,0.5488605,336.0615,9.5,5,1384265358,-0.1417389,-1.03688,-0.4802246,2.25621,-29.76412,-41.3184,330.028,329.6843,25,0.0.0.0,10.139.171.151,1,0
2013-11-12 15:10:49.429,4,0.4,52.16961,4.458413,0,0.5488605,336.0615,9.5,5,1384265358,-0.1397858,-0.7819672,-0.4935455,3.30262,-29.92854,-41.14661,329.7032,329.3594,25,0.0.0.0,10.139.171.151,1,0
2013-11-12 15:10:49.529,5,0.5,52.16961,4.458413,0,0.5488605,336.0615,9.5,5,1384265358,-0.2306671,-0.894104,-0.4488373,4.183809,-29.81893,-40.80308,329.007,328.6632,25,0.0.0.0,10.139.171.151,1,0
2013-11-12 15:10:49.623,6,0.6,52.16961,4.458413,0,0.5488605,336.0615,9.5,5,1384265358,-0.2306671,-0.894104,-0.4488373,3.908438,-29.65452,-41.08936,323.6936,323.3499,25,0.0.0.0,10.139.171.151,1,0
2013-11-12 15:10:49.728,7,0.7,52.16961,4.458413,0,0.5488605,336.0615,9.5,5,1384265358,-0.1594543,-0.8307495,-0.5275879,6.27663,-29.05166,-39.31441,320.1158,319.7721,25,0.0.0.0,10.139.171.151,1,0
2013-11-12 15:10:49.985,8,0.8,52.16961,4.458413,0,0.5488605,336.0615,9.5,5,1384265358,-0.1714478,-0.9283752,-0.5439148,6.496927,-29.4901,-38.51283,319.6714,319.3277,25,0.0.0.0,10.139.171.151,1,0
2013-11-12 15:10:50.112,9,0.9,52.16961,4.458413,0,0.5488605,336.0615,9.5,5,1384265358,-0.1575012,-0.8785248,-0.5128326,6.111406,-31.18906,-38.45557,318.6606,318.3168,25,0.0.0.0,10.139.171.151,1,0
2013-11-12 15:10:50.247,10,1,52.16961,4.458413,0,0.5488605,336.0615,9.5,5,1384265358,-0.3440704,-0.83815,-0.6743164,7.04767,-31.35347,-37.94027,311.0044,310.6607,25,0.0.0.0,10.139.171.151,1,0
2013-11-12 15:10:50.379,11,1.1,52.16962,4.458411,0,0.5574735,329.4152,10.99189,10,1384265359,-0.2930908,-2.006577,-1.712814,7.267965,-30.5862,-38.74186,311.6903,311.3466,25,0.0.0.0,10.139.171.151,1,0
2013-11-12 15:10:50.532,12,1.2,52.16962,4.458411,0,0.5574735,329.4152,10.99189,10,1384265359,0.1713562,-0.5119171,-0.2038879,6.496927,-29.92854,-39.77247,315.0786,314.7349,25,0.0.0.0,10.139.171.151,1,0
2013-11-12 15:10:50.655,13,1.3,52.16962,4.458411,0,0.5574735,329.4152,10.99189,10,1384265359,-0.2550507,-0.910202,-0.4459686,6.386778,-28.94205,-38.97088,316.0362,315.6925,25,0.0.0.0,10.139.171.151,1,0
2013-11-12 15:10:50.751,14,1.4,52.16962,4.458411,0,0.5574735,329.4152,10.99189,10,1384265359,0.2445068,-1.634003,-0.4966431,5.78096,-29.5449,-37.31045,315.5873,315.2436,25,0.0.0.0,10.139.171.151,1,0
2013-11-12 15:10:51.135,15,1.5,52.16962,4.458411,0,0.5574735,329.4152,10.99189,10,1384265359,-0.6269531,-0.5424805,-0.1514587,4.238884,-28.66803,-39.14265,316.2624,315.9187,25,0.0.0.0,10.139.171.151,1,0
2013-11-12 15:10:51.257,16,1.6,52.16962,4.458411,0,0.5574735,329.4152,10.99189,10,1384265359,-0.1440735,-0.7753754,-0.4215393,3.467844,-29.4353,-38.57009,316.8781,316.5344,25,0.0.0.0,10.139.171.151,1,0
2013-11-12 15:10:51.354,17,1.7,52.16962,4.458411,0,0.5574735,329.4152,10.99189,10,1384265359,-1.502853,-0.5180359,-0.6748505,3.688141,-28.99686,-39.02814,317.2133,316.8696,25,0.0.0.0,10.139.171.151,1,0
2013-11-12 15:10:51.451,18,1.8,52.16962,4.458411,0,0.5574735,329.4152,10.99189,10,1384265359,0.06877136,-0.8622589,-0.3757019,2.476507,-29.21608,-39.02814,317.6015,317.2578,25,0.0.0.0,10.139.171.151,1,0
2013-11-12 15:10:51.519,19,1.9,52.16962,4.458411,0,0.5574735,329.4152,10.99189,10,1384265359,0.06877136,-0.8622589,-0.3757019,2.25621,-29.21607,-40.40228,318.0468,317.7031,25,0.0.0.0,10.139.171.151,1,0
2013-11-12 15:10:51.700,20,2,52.16963,4.458408,0,0.5730193,334.6252,9.5,5,1384265360,-0.594162,-0.6625977,-0.2853699,1.760544,-28.94205,-40.116,318.6402,318.2965,25,0.0.0.0,10.139.171.151,1,0
2013-11-12 15:10:52.156,21,2.1,52.16963,4.458408,0,0.5730193,334.6252,9.5,5,1384265360,0.7698822,-1.475311,-2.012802,1.540245,-27.62673,-41.49015,319.3552,319.0115,25,0.0.0.0,10.139.171.151,1,0
2013-11-12 15:10:52.346,22,2.2,52.16963,4.458408,0,0.5730193,334.6252,9.5,5,1384265360,0.6179657,0.1379089,-0.6322021,2.696806,-27.90076,-40.97485,319.6171,319.2733,25,0.0.0.0,10.139.171.151,1,0
2013-11-12 15:10:52.479,23,2.3,52.16963,4.458408,0,0.5730193,334.6252,9.5,5,1384265360,-0.1127167,-1.018631,-0.8861542,2.201136,-27.73634,-39.65795,322.062,321.7183,25,0.0.0.0,10.139.171.151,1,0
2013-11-12 15:10:52.614,24,2.4,52.16963,4.458408,0,0.5730193,334.6252,9.5,5,1384265360,-0.1278992,-0.846756,-0.2791443,2.25621,-27.13349,-40.05874,322.978,322.6343,25,0.0.0.0,10.139.171.151,1,0
2013-11-12 15:10:52.755,25,2.5,52.16963,4.458408,0,0.5730193,334.6252,9.5,5,1384265360,-0.3619232,-0.3320618,-0.2921143,4.183809,-27.84595,-40.91759,319.481,319.1373,25,0.0.0.0,10.139.171.151,1,0
2013-11-12 15:10:52.832,26,2.6,52.16963,4.458408,0,0.5730193,334.6252,9.5,5,1384265360,-0.0009918213,-1.796066,-0.6938324,2.917103,-27.90075,-40.05874,321.2519,320.9082,25,0.0.0.0,10.139.171.151,1,0
2013-11-12 15:10:53.046,27,2.7,52.16963,4.458408,0,0.5730193,334.6252,9.5,5,1384265360,-0.5497589,-0.8178711,-0.5018921,4.238884,-28.3392,-38.45557,320.2616,319.9179,25,0.0.0.0,10.139.171.151,1,0
2013-11-12 15:10:53.132,28,2.8,52.16963,4.458408,0,0.5730193,334.6252,9.5,5,1384265360,-0.7580109,-0.8372803,-0.4013977,5.340368,-28.22959,-38.34106,315.8179,315.4742,25,0.0.0.0,10.139.171.151,1,0
2013-11-12 15:10:53.252,29,2.9,52.16963,4.458408,0,0.5730193,334.6252,9.5,5,1384265360,-0.1165619,-0.9634857,-0.5221863,6.001259,-28.99686,-36.9669,310.1904,309.8467,25,0.0.0.0,10.139.171.151,1,0
2013-11-12 15:10:53.336,30,3,52.16964,4.458394,0,0.6365897,326.873,10.7951,10,1384265361,0.1427307,-0.6959686,-0.7380066,5.891109,-29.65452,-37.19593,309.8908,309.5471,25,0.0.0.0,10.139.171.151,1,0
2013-11-12 15:10:53.464,31,3.1,52.16964,4.458394,0,0.6365897,326.873,10.7951,10,1384265361,0.1535797,-0.6913605,-0.6386871,6.331703,-31.07944,-36.73789,310.7629,310.4192,25,0.0.0.0,10.139.171.151,1,0
2013-11-12 15:10:53.575,32,3.2,52.16964,4.458394,0,0.6365897,326.873,10.7951,10,1384265361,0.3152008,-0.8746033,-0.7699738,6.937521,-30.69581,-36.22257,310.4751,310.1313,25,0.0.0.0,10.139.171.151,1,0
2013-11-12 15:10:53.781,33,3.3,52.16964,4.458394,0,0.6365897,326.873,10.7951,10,1384265361,-0.1504822,-0.9840393,-0.4911194,8.09408,-32.06593,-34.67664,305.3061,304.9624,25,0.0.0.0,10.139.171.151,1,0
2013-11-12 15:10:54.050,34,3.4,52.16964,4.458394,0,0.6365897,326.873,10.7951,10,1384265361,-0.05621338,-0.7450256,-0.655899,9.195564,-32.8332,-33.41702,299.3692,299.0255,25,0.0.0.0,10.139.171.151,1,0
2013-11-12 15:10:54.184,35,3.5,52.16964,4.458394,0,0.6365897,326.873,10.7951,10,1384265361,-0.02363586,-0.8190155,-0.5514069,8.589746,-33.54567,-34.04684,299.478,299.1342,25,0.0.0.0,10.139.171.151,1,0
2013-11-12 15:10:54.324,36,3.6,52.16964,4.458394,0,0.6365897,326.873,10.7951,10,1384265361,-0.1408386,-0.7050934,-0.6417389,9.581085,-34.64177,-34.27586,296.6991,296.3554,25,0.0.0.0,10.139.171.151,1,0
2013-11-12 15:10:54.442,37,3.7,52.16964,4.458394,0,0.6365897,326.873,10.7951,10,1384265361,-0.1192169,-0.8899994,-0.5087585,10.07675,-33.60047,-32.15739,293.9661,293.6223,25,0.0.0.0,10.139.171.151,1,0
2013-11-12 15:10:54.553,38,3.8,52.16966,4.458378,0,0.6975613,323.5,10.69035,10,1384265362,-0.3516388,-0.7699585,-0.389267,9.250639,-34.31293,-31.8711,293.7917,293.448,25,0.0.0.0,10.139.171.151,1,0
2013-11-12 15:10:54.712,39,3.9,52.16966,4.458378,0,0.6975613,323.5,10.69035,10,1384265362,-0.2163086,-0.6890564,-0.4395599,10.13183,-35.62825,-30.95499,288.1872,287.8434,25,0.0.0.0,10.139.171.151,1,0
2013-11-12 15:10:54.812,40,4,52.16966,4.458378,0,0.6975613,323.5,10.69035,10,1384265362,0.1758423,-0.7215424,-0.5742493,9.966602,-36.55994,-30.43969,286.2739,285.9301,25,0.0.0.0,10.139.171.151,1,0
2013-11-12 15:10:55.024,41,4.1,52.16966,4.458378,0,0.6975613,323.5,10.69035,10,1384265362,0.3106232,-0.6611176,-0.1873932,11.39853,-37.10799,-29.40908,285.426,285.0822,25,0.0.0.0,10.139.171.151,1,0
2013-11-12 15:10:55.129,42,4.2,52.16966,4.458378,0,0.6975613,323.5,10.69035,10,1384265362,-0.130127,-0.7900085,-0.2783356,10.73764,-38.20409,-28.37846,284.2411,283.8974,25,0.0.0.0,10.139.171.151,1,0
2013-11-12 15:10:55.224,43,4.3,52.16966,4.458378,0,0.6975613,323.5,10.69035,10,1384265362,0.1182251,-2.004639,-0.5867004,12.55509,-36.94356,-27.74863,282.9858,282.6421,25,0.0.0.0,10.139.171.151,1,0
2013-11-12 15:10:55.314,44,4.4,52.16966,4.458378,0,0.6975613,323.5,10.69035,10,1384265362,-0.6163635,-0.6902924,-0.9162598,12.44494,-37.27239,-26.25999,281.8556,281.5118,25,0.0.0.0,10.139.171.151,1,0
2013-11-12 15:10:55.439,45,4.5,52.16966,4.458378,0,0.6975613,323.5,10.69035,10,1384265362,-0.32164,-0.645401,-0.7068634,13.05076,-36.45032,-24.59955,279.6335,279.2897,25,0.0.0.0,10.139.171.151,1,0
2013-11-12 15:10:55.542,46,4.6,52.16967,4.458366,0,0.7216482,298.4119,9.5,5,1384265363,-0.2706146,-1.834503,-1.655716,13.87687,-37.60122,-24.08424,278.0932,277.7495,25,0.0.0.0,10.139.171.151,1,0
2013-11-12 15:10:55.650,47,4.7,52.16967,4.458366,0,0.7216482,298.4119,9.5,5,1384265363,-0.4957275,-2.002594,-1.717514,13.49135,-37.54643,-23.45442,260.4068,260.0631,25,0.0.0.0,10.139.171.151,1,0
2013-11-12 15:10:55.789,48,4.8,52.16967,4.458366,0,0.7216482,298.4119,9.5,5,1384265363,0.3362885,-0.27771,-0.2028961,13.93195,-37.10798,-22.76735,259.9305,259.5868,25,0.0.0.0,10.139.171.151,1,0
2013-11-12 15:10:56.031,49,4.9,52.16967,4.458366,0,0.7216482,298.4119,9.5,5,1384265363,-0.8163605,-0.1845703,-0.001266479,13.10583,-37.27239,-23.51168,260.9898,260.6461,25,0.0.0.0,10.139.171.151,1,0
2013-11-12 15:10:56.143,50,5,52.16967,4.458366,0,0.7216482,298.4119,9.5,5,1384265363,-0.3181152,-0.9738312,-0.2707977,12.66524,-36.61473,-23.39716,261.8113,261.4676,25,0.0.0.0,10.139.171.151,1,0
2013-11-12 15:10:56.268,51,5.1,52.16967,4.458366,0,0.7216482,298.4119,9.5,5,1384265363,0.3043976,-0.4160767,-0.6641235,14.31747,-34.86098,-23.7407,264.9895,264.6458,25,0.0.0.0,10.139.171.151,1,0
2013-11-12 15:10:56.415,52,5.2,52.16967,4.458366,0,0.7216482,298.4119,9.5,5,1384265363,-0.4556274,-1.861862,-1.192947,13.05612,-33.83096,-25.01801,269.8163,269.4726,25,0.0.0.0,10.139.171.151,1,0
2013-11-12 15:10:56.521,53,5.3,52.16967,4.458366,0,0.7216482,298.4119,9.5,5,1384265363,0.01309204,-1.540024,-0.8823547,11.18374,-33.17337,-24.56006,272.3963,272.0526,25,0.0.0.0,10.139.171.151,1,0
2013-11-12 15:10:56.671,54,5.4,52.16968,4.458358,0,0.7424996,332.716,10.58506,10,1384265364,-0.02226257,-0.3538971,-0.01425171,11.6243,-32.95418,-26.73533,277.0674,276.7237,25,0.0.0.0,10.139.171.151,1,0
2013-11-12 15:10:56.790,55,5.5,52.16968,4.458358,0,0.7424996,332.716,10.58506,10,1384265364,-0.2237091,-1.610138,-0.9424744,12.56049,-32.46098,-25.07525,273.9655,273.6218,25,0.0.0.0,10.139.171.151,1,0
2013-11-12 15:10:56.982,56,5.6,52.16968,4.458358,0,0.7424996,332.716,10.58506,10,1384265364,0.0680542,-1.396851,-0.9234009,12.83584,-31.09101,-25.59045,274.7331,274.3894,25,0.0.0.0,10.139.171.151,1,0
2013-11-12 15:10:57.088,57,5.7,52.16968,4.458358,0,0.7424996,332.716,10.58506,10,1384265364,0.02722168,-0.6537476,-0.4299622,11.56923,-29.61143,-26.4491,282.1707,281.827,25,0.0.0.0,10.139.171.151,1,0
2013-11-12 15:10:57.190,58,5.8,52.16968,4.458358,0,0.7424996,332.716,10.58506,10,1384265364,-0.09761047,-0.2978058,-0.2473602,12.06486,-29.11825,-25.47598,282.2104,281.8667,25,0.0.0.0,10.139.171.151,1,0
2013-11-12 15:10:57.298,59,5.9,52.16968,4.458358,0,0.7424996,332.716,10.58506,10,1384265364,-0.3047485,-0.7592926,-0.511795,10.85332,-28.57025,-28.10917,288.1883,287.8445,25,0.0.0.0,10.139.171.151,1,0
2013-11-12 15:10:57.396,60,6,52.16969,4.458357,0,0.7896624,7.646008,9.5,5,1384265365,0.07078552,-1.156616,-0.8286133,9.256285,-26.54268,-28.50988,290.9028,290.5591,25,0.0.0.0,10.139.171.151,1,0
2013-11-12 15:10:57.517,61,6.1,52.16969,4.458357,0,0.7896624,7.646008,9.5,5,1384265365,-0.05981445,-0.8527679,-0.5816498,8.154884,-25.4467,-31.48656,303.8475,303.5038,25,0.0.0.0,10.139.171.151,1,0
2013-11-12 15:10:57.614,62,6.2,52.16969,4.458357,0,0.7896624,7.646008,9.5,5,1384265365,-0.1644287,-0.702301,-0.4899597,9.091076,-25.28231,-31.65829,302.7602,302.4164,25,0.0.0.0,10.139.171.151,1,0
2013-11-12 15:10:57.757,63,6.3,52.16969,4.458357,0,0.7896624,7.646008,9.5,5,1384265365,-0.09761047,-0.9673767,-0.6963654,7.604185,-24.24113,-32.97489,307.1517,306.808,25,0.0.0.0,10.139.171.151,1,0
2013-11-12 15:10:57.894,64,6.4,52.16969,4.458357,0,0.7896624,7.646008,9.5,5,1384265365,-0.06942749,-0.8747711,-0.6605072,8.320095,-24.07672,-33.49009,307.3854,307.0417,25,0.0.0.0,10.139.171.151,1,0
2013-11-12 15:10:58.108,65,6.5,52.16969,4.458357,0,0.7896624,7.646008,9.5,5,1384265365,-0.1674805,-0.6392212,-0.5466156,8.044744,-23.47394,-34.00527,309.6735,309.3297,25,0.0.0.0,10.139.171.151,1,0
2013-11-12 15:10:58.241,66,6.6,52.16969,4.458357,0,0.7896624,7.646008,9.5,5,1384265365,-0.1220703,-0.714386,-0.544281,9.256285,-22.59715,-33.43284,309.1622,308.8185,25,0.0.0.0,10.139.171.151,1,0
2013-11-12 15:10:58.379,67,6.7,52.16969,4.458357,0,0.7896624,7.646008,9.5,5,1384265365,-0.08924866,-0.8746948,-0.6956177,9.311356,-22.65195,-32.91766,308.1034,307.7597,25,0.0.0.0,10.139.171.151,1,0
2013-11-12 15:10:58.507,68,6.8,52.16969,4.458357,0,0.7896624,7.646008,9.5,5,1384265365,-0.2115479,-0.7358398,-0.6302643,9.862057,-23.09034,-32.91766,306.732,306.3883,25,0.0.0.0,10.139.171.151,1,0
2013-11-12 15:10:58.628,69,6.9,52.16971,4.458356,0,0.8031577,8.815394,9.5,5,1384265366,-0.161972,-0.749176,-0.5910797,11.67937,-23.47394,-32.97489,306.5219,306.1782,25,0.0.0.0,10.139.171.151,1,0
2013-11-12 15:10:58.758,70,7,52.16971,4.458356,0,0.8031577,8.815394,9.5,5,1384265366,-0.1868439,-0.7334137,-0.6340637,11.18374,-23.41913,-30.62791,301.8165,301.4728,25,0.0.0.0,10.139.171.151,1,0
2013-11-12 15:10:59.043,71,7.1,52.16971,4.458356,0,0.8031577,8.815394,9.5,5,1384265366,-0.1723022,-0.710907,-0.5970612,12.00979,-24.35072,-28.16642,300.1295,299.7858,25,0.0.0.0,10.139.171.151,1,0
2013-11-12 15:10:59.130,72,7.2,52.16971,4.458356,0,0.8031577,8.815394,9.5,5,1384265366,-0.1723022,-0.710907,-0.5970612,12.23007,-24.56992,-28.39539,295.8548,295.5111,25,0.0.0.0,10.139.171.151,1,0
2013-11-12 15:10:59.238,73,7.3,52.16971,4.458356,0,0.8031577,8.815394,9.5,5,1384265366,-0.2205811,-0.6786957,-0.5983276,12.23007,-26.32348,-26.67808,291.9242,291.5805,25,0.0.0.0,10.139.171.151,1,0
2013-11-12 15:10:59.529,74,7.4,52.16971,4.458356,0,0.8031577,8.815394,9.5,5,1384265366,-0.2152252,-0.8191071,-0.6612244,11.40402,-26.92628,-26.8498,289.5905,289.2467,25,0.0.0.0,10.139.171.151,1,0
2013-11-12 15:10:59.688,75,7.5,52.16971,4.458356,0,0.8031577,8.815394,9.5,5,1384265366,-0.2097168,-0.6974487,-0.5943298,11.0736,-28.13185,-27.65122,289.4984,289.1547,25,0.0.0.0,10.139.171.151,1,0
2013-11-12 15:10:59.821,76,7.6,52.16971,4.458356,0,0.8031577,8.815394,9.5,5,1384265366,-0.2167969,-0.7169952,-0.6098785,10.46783,-27.74826,-27.365,290.0671,289.7234,25,0.0.0.0,10.139.171.151,1,0
2013-11-12 15:11:00.068,77,7.7,52.16973,4.458354,0,0.8341458,1.850616,9.5,5,1384265367,-0.2024994,-0.798584,-0.6329803,10.24755,-28.62505,-29.54028,290.4886,290.1449,25,0.0.0.0,10.139.171.151,1,0
2013-11-12 15:11:00.231,78,7.8,52.16973,4.458354,0,0.8341458,1.850616,9.5,5,1384265367,-0.2194061,-0.8061371,-0.6408081,9.531635,-29.55663,-29.82648,290.7318,290.3881,25,0.0.0.0,10.139.171.151,1,0
2013-11-12 15:11:00.363,79,7.9,52.16973,4.458354,0,0.8341458,1.850616,9.5,5,1384265367,-0.212326,-0.7604523,-0.542572,9.421495,-29.22784,-32.00175,291.2987,290.955,25,0.0.0.0,10.139.171.151,1,0
2013-11-12 15:11:00.482,80,8,52.16973,4.458354,0,0.8341458,1.850616,9.5,5,1384265367,-0.1950989,-0.8011627,-0.5755005,7.769394,-29.66623,-33.26112,293.2006,292.8569,25,0.0.0.0,10.139.171.151,1,0
2013-11-12 15:11:00.639,81,8.1,52.16973,4.458354,0,0.8341458,1.850616,9.5,5,1384265367,-0.2230377,-0.8242035,-0.5911255,7.328835,-29.55663,-33.94804,304.1695,303.8258,25,0.0.0.0,10.139.171.151,1,0
2013-11-12 15:11:00.744,82,8.2,52.16973,4.458354,0,0.8341458,1.850616,9.5,5,1384265367,-0.2291565,-0.8092346,-0.5717163,8.265026,-29.50183,-33.43284,305.6492,305.3055,25,0.0.0.0,10.139.171.151,1,0
2013-11-12 15:11:00.820,83,8.3,52.16973,4.458354,0,0.8341458,1.850616,9.5,5,1384265367,-0.2154999,-0.7868042,-0.5473785,7.769394,-29.88543,-33.60458,305.7436,305.3999,25,0.0.0.0,10.139.171.151,1,0
2013-11-12 15:11:01.036,84,8.400001,52.16973,4.458354,0,0.8341458,1.850616,9.5,5,1384265367,-0.2348785,-0.8109589,-0.5571289,6.998413,-29.44703,-37.03919,306.2433,305.8996,25,0.0.0.0,10.139.171.151,1,0
2013-11-12 15:11:01.135,85,8.5,52.16973,4.458354,0,0.8341458,1.850616,9.5,5,1384265367,-0.2057953,-0.8331757,-0.5744934,6.172363,-29.61143,-37.66888,306.6904,306.3466,25,0.0.0.0,10.139.171.151,1,0
2013-11-12 15:11:01.254,86,8.6,52.16974,4.458351,0,0.8695396,358.1594,9.5,5,1384265368,-0.1999054,-0.8037872,-0.5531158,5.401384,-28.84425,-38.58477,307.8205,307.4768,25,0.0.0.0,10.139.171.151,1,0
2013-11-12 15:11:01.352,87,8.7,52.16974,4.458351,0,0.8695396,358.1594,9.5,5,1384265368,-0.2048187,-0.7996216,-0.5366058,6.062225,-30.04983,-39.84414,308.6745,308.3308,25,0.0.0.0,10.139.171.151,1,0
2013-11-12 15:11:01.479,88,8.8,52.16974,4.458351,0,0.8695396,358.1594,9.5,5,1384265368,-0.2081146,-0.8192139,-0.5472717,4.795612,-30.10463,-41.27523,315.3896,315.0458,25,0.0.0.0,10.139.171.151,1,0
2013-11-12 15:11:01.585,89,8.900001,52.16974,4.458351,0,0.8695396,358.1594,9.5,5,1384265368,-0.1859436,-0.8314514,-0.5559387,4.465193,-31.85819,-41.61869,315.8004,315.4567,25,0.0.0.0,10.139.171.151,1,0
2013-11-12 15:11:01.690,90,9,52.16974,4.458351,0,0.8695396,358.1594,9.5,5,1384265368,-0.1521606,-0.811615,-0.557785,4.134773,-32.84458,-41.96215,315.727,315.3833,25,0.0.0.0,10.139.171.151,1,0
2013-11-12 15:11:01.835,91,9.1,52.16974,4.458351,0,0.8695396,358.1594,9.5,5,1384265368,-0.1548615,-0.8165131,-0.5636139,3.749283,-33.22817,-43.39324,316.1201,315.7764,25,0.0.0.0,10.139.171.151,1,0
2013-11-12 15:11:02.049,92,9.2,52.16974,4.458351,0,0.8695396,358.1594,9.5,5,1384265368,-0.1490631,-0.8205261,-0.5645599,4.299982,-34.10496,-43.8512,316.2515,315.9078,25,0.0.0.0,10.139.171.151,1,0
2013-11-12 15:11:02.270,93,9.3,52.16974,4.458351,0,0.8695396,358.1594,9.5,5,1384265368,-0.1215973,-0.8152313,-0.5664368,4.189842,-34.10496,-42.24837,316.8513,316.5076,25,0.0.0.0,10.139.171.151,1,0
2013-11-12 15:11:02.425,94,9.400001,52.16975,4.458342,0,0.9021902,333.0628,9.5,5,1384265369,-0.1215973,-0.8152313,-0.5664368,4.079702,-36.18732,-39.04273,316.5044,316.1606,25,0.0.0.0,10.139.171.151,1,0
2013-11-12 15:11:02.542,95,9.5,52.16975,4.458342,0,0.9021902,333.0628,9.5,5,1384265369,-0.1260834,-0.8250122,-0.5780945,5.897013,-36.35172,-38.64202,315.8907,315.547,25,0.0.0.0,10.139.171.151,1,0
2013-11-12 15:11:02.683,96,9.6,52.16975,4.458342,0,0.9021902,333.0628,9.5,5,1384265369,-0.1190796,-0.8006134,-0.5644836,7.989676,-37.00931,-38.06959,315.2155,314.8718,25,0.0.0.0,10.139.171.151,1,0
2013-11-12 15:11:02.804,97,9.7,52.16975,4.458342,0,0.9021902,333.0628,9.5,5,1384265369,-0.1158752,-0.812561,-0.5829468,8.705585,-36.84491,-36.6385,314.2593,313.9156,25,0.0.0.0,10.139.171.151,1,0
2013-11-12 15:11:02.999,98,9.8,52.16975,4.458342,0,0.9021902,333.0628,9.5,5,1384265369,-0.108017,-0.821579,-0.5916595,8.595444,-36.51611,-35.83707,313.0189,312.6752,25,0.0.0.0,10.139.171.151,1,0
2013-11-12 15:11:03.109,99,9.900001,52.16975,4.458342,0,0.9021902,333.0628,9.5,5,1384265369,-0.1160889,-0.8037262,-0.579071,8.044744,-35.85853,-33.66181,312.129,311.7852,25,0.0.0.0,10.139.171.151,1,0
2013-11-12 15:11:03.221,100,10,52.16975,4.458342,0,0.9021902,333.0628,9.5,5,1384265369,-0.1308289,-0.7838898,-0.5782166,8.760656,-35.91332,-33.26112,310.6203,310.2766,25,0.0.0.0,10.139.171.151,1,0
2013-11-12 15:11:03.319,101,10.1,52.16975,4.458342,0,0.9021902,333.0628,9.5,5,1384265369,-0.1255798,-0.8026733,-0.5908051,9.256285,-35.31054,-33.77631,309.6853,309.3416,25,0.0.0.0,10.139.171.151,1,0
2013-11-12 15:11:03.425,102,10.2,52.16975,4.458342,0,0.9021902,333.0628,9.5,5,1384265369,-0.1214142,-0.8165131,-0.6014557,8.815725,-35.31054,-33.31835,308.4435,308.0998,25,0.0.0.0,10.139.171.151,1,0
2013-11-12 15:11:03.865,103,10.3,52.16977,4.458337,0,0.9035697,335.4228,9.5,5,1384265370,-0.1227112,-0.8018036,-0.5976105,9.146145,-34.43375,-34.00527,306.6481,306.3044,25,0.0.0.0,10.139.171.151,1,0
2013-11-12 15:11:04.180,104,10.4,52.16977,4.458337,0,0.9035697,335.4228,9.5,5,1384265370,-0.1249084,-0.7899628,-0.5888824,8.430235,-32.73498,-33.14661,305.2819,304.9382,25,0.0.0.0,10.139.171.151,1,0
2013-11-12 15:11:04.426,105,10.5,52.16977,4.458337,0,0.9035697,335.4228,9.5,5,1384265370,-0.127594,-0.7977448,-0.5908203,9.476564,-32.57059,-33.08938,304.4311,304.0874,25,0.0.0.0,10.139.171.151,1,0
2013-11-12 15:11:04.597,106,10.6,52.16977,4.458337,0,0.9035697,335.4228,9.5,5,1384265370,-0.1234741,-0.8105927,-0.5975952,9.531635,-31.74859,-32.00175,303.6857,303.342,25,0.0.0.0,10.139.171.151,1,0
2013-11-12 15:11:04.738,107,10.7,52.16977,4.458337,0,0.9035697,335.4228,9.5,5,1384265370,-0.132431,-0.7966003,-0.5811157,9.366426,-32.57058,-31.9445,302.8225,302.4788,25,0.0.0.0,10.139.171.151,1,0
2013-11-12 15:11:04.817,108,10.8,52.16977,4.458337,0,0.9035697,335.4228,9.5,5,1384265370,-0.1073761,-0.8079529,-0.5936432,8.980936,-32.84458,-32.80315,301.9504,301.6067,25,0.0.0.0,10.139.171.151,1,0
2013-11-12 15:11:05.030,109,10.9,52.16977,4.458337,0,0.9035697,335.4228,9.5,5,1384265370,-0.1300507,-0.8152771,-0.5898132,8.650515,-31.96779,-31.20034,289.107,288.7633,25,0.0.0.0,10.139.171.151,1,0
2013-11-12 15:11:05.125,110,11,52.16977,4.458337,0,0.9035697,335.4228,9.5,5,1384265370,-0.103775,-0.8011017,-0.5839081,8.705585,-30.92661,-32.17348,289.2055,288.8618,25,0.0.0.0,10.139.171.151,1,0
2013-11-12 15:11:05.224,111,11.1,52.16977,4.458337,0,0.9035697,335.4228,9.5,5,1384265370,-0.103775,-0.8011017,-0.5839081,9.862057,-30.21422,-31.08584,289.4265,289.0828,25,0.0.0.0,10.139.171.151,1,0
2013-11-12 15:11:05.318,112,11.2,52.16978,4.458327,0,0.9698492,347.9984,10.15004,10,1384265371,-0.1264191,-0.8075256,-0.5888519,9.862057,-31.09101,-30.62791,289.4105,289.0668,25,0.0.0.0,10.139.171.151,1,0
2013-11-12 15:11:05.443,113,11.3,52.16978,4.458327,0,0.9698492,347.9984,10.15004,10,1384265371,-0.1226807,-0.805603,-0.5839691,10.90839,-31.25541,-30.91412,289.3709,289.0272,25,0.0.0.0,10.139.171.151,1,0
2013-11-12 15:11:05.537,114,11.4,52.16978,4.458327,0,0.9698492,347.9984,10.15004,10,1384265371,-0.08282471,-0.8015289,-0.5857544,9.751915,-32.18699,-29.02508,287.8042,287.4605,25,0.0.0.0,10.139.171.151,1,0
2013-11-12 15:11:05.619,115,11.5,52.16978,4.458327,0,0.9698492,347.9984,10.15004,10,1384265371,-0.1243439,-0.8153534,-0.5868683,9.476564,-33.00898,-28.96783,287.9348,287.5911,25,0.0.0.0,10.139.171.151,1,0
2013-11-12 15:11:05.734,116,11.6,52.16978,4.458327,0,0.9698492,347.9984,10.15004,10,1384265371,-0.1216431,-0.8123779,-0.5751801,10.85332,-33.28297,-28.45263,287.4194,287.0757,25,0.0.0.0,10.139.171.151,1,0
2013-11-12 15:11:06.008,117,11.7,52.16978,4.458327,0,0.9698492,347.9984,10.15004,10,1384265371,-0.1247253,-0.8015289,-0.5722961,10.08234,-31.41981,-29.82648,288.6066,288.2628,25,0.0.0.0,10.139.171.151,1,0
2013-11-12 15:11:06.128,118,11.8,52.16978,4.458327,0,0.9698492,347.9984,10.15004,10,1384265371,-0.146225,-0.8177643,-0.5762329,10.30262,-30.87181,-27.76572,289.1266,288.7829,25,0.0.0.0,10.139.171.151,1,0
2013-11-12 15:11:06.284,119,11.9,52.16978,4.458327,0,0.9698492,347.9984,10.15004,10,1384265371,-0.1434174,-0.8149109,-0.578186,9.806986,-32.02259,-29.54028,289.3077,288.964,25,0.0.0.0,10.139.171.151,1,0
2013-11-12 15:11:06.416,120,12,52.16978,4.458327,0,0.9698492,347.9984,10.15004,10,1384265371,-0.1360168,-0.8071899,-0.5723267,9.751915,-32.29659,-29.712,289.4018,289.058,25,0.0.0.0,10.139.171.151,1,0
2013-11-12 15:11:06.527,121,12.1,52.16979,4.458312,2.173679,1.028165,334.4212,9.539872,10,1384265372,-0.1245728,-0.8083649,-0.570343,9.201216,-31.41981,-29.13955,289.4459,289.1022,25,0.0.0.0,10.139.171.151,1,0
2013-11-12 15:11:06.663,122,12.2,52.16979,4.458312,2.173679,1.028165,334.4212,9.539872,10,1384265372,-0.1250305,-0.8299255,-0.5780792,7.438974,-30.98141,-31.65829,289.9485,289.6047,25,0.0.0.0,10.139.171.151,1,0
2013-11-12 15:11:07.239,123,12.3,52.16979,4.458312,2.173679,1.028165,334.4212,9.539872,10,1384265372,-0.1235504,-0.8141785,-0.5625305,6.172363,-29.94023,-30.2272,302.0634,301.7197,25,0.0.0.0,10.139.171.151,1,0
2013-11-12 15:11:07.990,124,12.4,52.16979,4.458312,2.173679,1.028165,334.4212,9.539872,10,1384265372,-0.1158905,-0.8134613,-0.5722351,3.749283,-30.37862,-33.31835,311.4407,311.097,25,0.0.0.0,10.139.171.151,1,0
2013-11-12 15:11:08.577,125,12.5,52.16979,4.458312,2.173679,1.028165,334.4212,9.539872,10,1384265372,-0.1118164,-0.8253021,-0.5780334,3.418861,-30.37862,-34.00527,312.0019,311.6581,25,0.0.0.0,10.139.171.151,1,0
2013-11-12 15:11:09.079,126,12.6,52.1698,4.458293,2.569248,1.032376,322.9961,9.495601,10,1384265373,-0.1148071,-0.8193817,-0.5770874,1.491413,-30.43342,-35.66534,319.0008,318.6571,25,0.0.0.0,10.139.171.151,1,0
2013-11-12 15:11:09.451,127,12.7,52.1698,4.458272,0,1.022037,322.3748,9.520333,10,1384265374,-0.1083984,-0.8086853,-0.570282,0.9957809,-32.68018,-36.29502,320.2293,319.8856,25,0.0.0.0,10.139.171.151,1,0
2013-11-12 15:11:09.695,128,12.8,52.1698,4.458272,0,1.022037,322.3748,9.520333,10,1384265374,-0.1223297,-0.8230896,-0.5722351,1.8769,-32.78978,-36.18053,317.3642,317.0205,25,0.0.0.0,10.139.171.151,1,0
2013-11-12 15:11:10.034,129,12.9,52.1698,4.458272,0,1.022037,322.3748,9.520333,10,1384265374,-0.118515,-0.8241425,-0.5712433,2.097183,-33.22817,-35.26464,318.5908,318.247,25,0.0.0.0,10.139.171.151,1,0
2013-11-12 15:11:10.331,130,13,52.1698,4.458272,0,1.022037,322.3748,9.520333,10,1384265374,-0.109314,-0.8125153,-0.5644073,2.207321,-34.32415,-34.57771,316.3885,316.0448,25,0.0.0.0,10.139.171.151,1,0
2013-11-12 15:11:10.515,131,13.1,52.1698,4.458272,0,1.022037,322.3748,9.520333,10,1384265374,-0.1022949,-0.8254852,-0.5770264,2.537741,-35.20094,-35.03567,314.997,314.6533,25,0.0.0.0,10.139.171.151,1,0
2013-11-12 15:11:10.708,132,13.2,52.1698,4.458272,0,1.022037,322.3748,9.520333,10,1384265374,-0.1022949,-0.8254852,-0.5770264,2.702953,-33.61176,-34.74944,314.5449,314.2012,25,0.0.0.0,10.139.171.151,1,0
2013-11-12 15:11:10.840,133,13.3,52.1698,4.458272,0,1.022037,322.3748,9.520333,10,1384265374,-0.1016235,-0.8128052,-0.5789795,4.244913,-34.81734,-33.37559,313.2397,312.8959,25,0.0.0.0,10.139.171.151,1,0
2013-11-12 15:11:11.078,134,13.4,52.16981,4.458253,0,1.012422,325.772,9.43186,5,1384265375,-0.09759521,-0.8236084,-0.5750427,4.024633,-34.15975,-34.06252,305.5117,305.168,25,0.0.0.0,10.139.171.151,1,0
2013-11-12 15:11:11.268,135,13.5,52.16981,4.458253,0,1.012422,325.772,9.43186,5,1384265375,-0.1147461,-0.8223114,-0.575119,4.465193,-33.94056,-33.14661,305.1779,304.8342,25,0.0.0.0,10.139.171.151,1,0
2013-11-12 15:11:11.462,136,13.6,52.16981,4.458253,0,1.012422,325.772,9.43186,5,1384265375,-0.1063995,-0.8126984,-0.5770721,4.988932,-33.46567,-33.15441,303.9995,303.6558,25,0.0.0.0,10.139.171.151,1,0
2013-11-12 15:11:11.651,137,13.7,52.16981,4.458253,0,1.012422,325.772,9.43186,5,1384265375,-0.1118469,-0.8243103,-0.5741425,5.319324,-34.89014,-29.94947,301.2917,300.9479,25,0.0.0.0,10.139.171.151,1,0
2013-11-12 15:11:11.797,138,13.8,52.16981,4.458253,0,1.012422,325.772,9.43186,5,1384265375,-0.1062469,-0.8204651,-0.5712128,5.48452,-35.38323,-29.43439,286.837,286.4933,25,0.0.0.0,10.139.171.151,1,0
2013-11-12 15:11:12.115,139,13.9,52.16981,4.458253,0,1.012422,325.772,9.43186,5,1384265375,-0.1072998,-0.8164825,-0.5663605,4.768671,-33.7944,-27.43131,284.8383,284.4946,25,0.0.0.0,10.139.171.151,1,0
2013-11-12 15:11:12.397,140,14,52.16981,4.458253,0,1.012422,325.772,9.43186,5,1384265375,-0.1088867,-0.8301849,-0.5711823,5.649715,-34.78056,-27.88917,285.0411,284.6974,25,0.0.0.0,10.139.171.151,1,0
2013-11-12 15:11:12.595,141,14.1,52.16982,4.458235,0,1.013659,326.4868,9.46278,10,1384265376,-0.10495,-0.8370667,-0.5662994,4.107885,-32.80823,-27.43131,289.774,289.4303,25,0.0.0.0,10.139.171.151,1,0
2013-11-12 15:11:12.986,142,14.2,52.16982,4.458235,0,1.013659,326.4868,9.46278,10,1384265376,-0.1002655,-0.8323212,-0.5721283,5.704781,-32.53429,-28.06086,290.4683,290.1246,25,0.0.0.0,10.139.171.151,1,0
2013-11-12 15:11:13.190,143,14.3,52.16982,4.458235,0,1.013659,326.4868,9.46278,10,1384265376,-0.1170502,-0.8036957,-0.579071,6.806087,-32.20557,-27.14516,290.4349,290.0912,25,0.0.0.0,10.139.171.151,1,0
2013-11-12 15:11:13.379,144,14.4,52.16982,4.458235,0,1.013659,326.4868,9.46278,10,1384265376,-0.1186523,-0.8154449,-0.5819855,5.48452,-31.98642,-27.25964,290.2213,289.8776,25,0.0.0.0,10.139.171.151,1,0
2013-11-12 15:11:13.513,145,14.5,52.16982,4.458235,0,1.013659,326.4868,9.46278,10,1384265376,-0.1064301,-0.8098297,-0.581955,5.319324,-31.38376,-28.69041,290.6938,290.3501,25,0.0.0.0,10.139.171.151,1,0
2013-11-12 15:11:13.641,146,14.6,52.16982,4.458235,0,1.013659,326.4868,9.46278,10,1384265376,-0.09695435,-0.8108978,-0.5741272,5.980108,-30.94546,-29.03379,295.3177,294.974,25,0.0.0.0,10.139.171.151,1,0
2013-11-12 15:11:13.770,147,14.7,52.16982,4.458235,0,1.013659,326.4868,9.46278,10,1384265376,-0.1148224,-0.8184052,-0.578064,5.09906,-32.04121,-27.31686,291.4692,291.1255,25,0.0.0.0,10.139.171.151,1,0
2013-11-12 15:11:14.052,148,14.8,52.16982,4.458235,0,1.013659,326.4868,9.46278,10,1384265376,-0.1148224,-0.8184052,-0.578064,5.704781,-30.23323,-28.17532,292.1352,291.7915,25,0.0.0.0,10.139.171.151,1,0
2013-11-12 15:11:14.150,149,14.9,52.16982,4.458224,0,1.01637,333.5997,9.468649,10,1384265377,-0.1034698,-0.8156891,-0.5760803,5.980108,-30.17844,-26.51562,292.0455,291.7018,25,0.0.0.0,10.139.171.151,1,0
2013-11-12 15:11:14.383,150,15,52.16982,4.458224,0,1.01637,333.5997,9.468649,10,1384265377,-0.1043396,-0.8195801,-0.5780182,5.319324,-28.97312,-26.28669,292.1408,291.7971,25,0.0.0.0,10.139.171.151,1,0
2013-11-12 15:11:14.587,151,15.1,52.16982,4.458224,0,1.01637,333.5997,9.468649,10,1384265377,-0.1053467,-0.8166351,-0.5799713,4.383211,-28.48004,-25.77163,292.3776,292.0339,25,0.0.0.0,10.139.171.151,1,0
2013-11-12 15:11:14.746,152,15.2,52.16982,4.458224,0,1.01637,333.5997,9.468649,10,1384265377,-0.1110535,-0.8165283,-0.57901,5.59465,-29.13748,-28.17532,293.3206,292.9769,25,0.0.0.0,10.139.171.151,1,0
2013-11-12 15:11:15.085,153,15.3,52.16982,4.458224,0,1.01637,333.5997,9.468649,10,1384265377,-0.1131134,-0.8105774,-0.5741882,4.878799,-28.31567,-27.54578,297.4586,297.1148,25,0.0.0.0,10.139.171.151,1,0
2013-11-12 15:11:15.368,154,15.4,52.16982,4.458224,0,1.01637,333.5997,9.468649,10,1384265377,-0.1092072,-0.8136444,-0.57901,4.383211,-27.82259,-28.63317,301.2803,300.9366,25,0.0.0.0,10.139.171.151,1,0
2013-11-12 15:11:15.523,155,15.5,52.16982,4.458224,0,1.01637,333.5997,9.468649,10,1384265377,-0.1051941,-0.8234863,-0.5789642,4.823734,-28.37046,-29.66332,301.1346,300.7908,25,0.0.0.0,10.139.171.151,1,0
2013-11-12 15:11:16.033,156,15.6,52.16982,4.458224,0,1.01637,333.5997,9.468649,10,1384265377,-0.1092377,-0.8135834,-0.5722046,4.218016,-27.43908,-29.14825,302.7118,302.3681,25,0.0.0.0,10.139.171.151,1,0
2013-11-12 15:11:16.581,157,15.7,52.16982,4.458224,0,1.01637,333.5997,9.468649,10,1384265377,-0.1054382,-0.8136749,-0.5741425,4.988932,-28.2061,-28.1181,299.6803,299.3366,25,0.0.0.0,10.139.171.151,1,0
2013-11-12 15:11:17.002,158,15.8,52.16982,4.458224,0,1.01637,333.5997,9.468649,10,1384265377,-0.1130829,-0.8125,-0.5712433,6.585827,-28.48004,-28.40424,302.8734,302.5297,25,145.118.83.22,10.139.171.151,1,0
2013-11-12 15:11:17.527,159,15.9,52.16983,4.458216,0,1.039935,339.892,9.36471,10,1384265378,-0.108078,-0.822403,-0.5721741,5.814913,-27.93217,-27.03071,302.6292,302.2855,25,145.118.83.22,10.139.171.151,1,0
2013-11-12 15:11:18.326,160,16,52.16983,4.458216,0,1.039935,339.892,9.36471,10,1384265378,-0.1110535,-0.8165436,-0.5809784,7.907394,-28.69918,-27.71746,295.5052,295.1614,25,145.118.83.22,10.139.171.151,1,0
2013-11-12 15:11:19.419,161,16.1,52.16983,4.458216,0,1.039935,339.892,9.36471,10,1384265378,-0.1179047,-0.8085327,-0.5742188,8.237787,-27.38429,-27.83193,298.0308,297.6871,25,145.118.83.22,10.139.171.151,1,0
2013-11-12 15:11:21.353,162,16.2,52.16984,4.458205,0,1.04698,323.0104,9.264446,5,1384265379,-0.1207275,-0.8085175,-0.579071,6.035173,-27.3843,-28.86208,299.1436,298.7999,25,145.118.83.22,10.139.171.151,1,0
2013-11-12 15:11:24.481,163,16.3,52.16985,4.45819,0,1.071333,331.6698,9.168488,5,1384265380,-0.09960938,-0.8158569,-0.5858002,8.733376,-25.13802,-27.66024,300.9541,300.6104,25,145.118.83.22,10.139.171.151,1,0
2013-11-12 15:11:25.438,164,16.4,52.16985,4.45819,0,1.071333,331.6698,9.168488,5,1384265380,-0.1110077,-0.8203735,-0.571228,8.402983,-26.01461,-26.74454,298.9207,298.577,25,145.118.83.22,10.139.171.151,1,0
2013-11-12 15:11:26.227,165,16.5,52.16986,4.458179,0,1.075639,322.9055,9.062689,5,1384265381,-0.1122894,-0.8066254,-0.5654297,7.411808,-25.79547,-30.06394,301.7092,301.3655,25,145.118.83.22,10.139.171.151,1,0
2013-11-12 15:11:26.939,166,16.6,52.16986,4.458179,0,1.075639,322.9055,9.062689,5,1384265381,-0.09532166,-0.8365173,-0.5925446,7.411808,-26.23377,-29.37717,301.6358,301.2921,25,145.118.83.22,10.139.171.151,1,0
2013-11-12 15:11:27.147,167,16.7,52.16986,4.458179,0,1.075639,322.9055,9.062689,5,1384265381,-0.108429,-0.8067627,-0.574173,7.962461,-26.34333,-28.69041,294.3608,294.0171,25,145.118.83.22,10.139.171.151,1,0
2013-11-12 15:11:27.512,168,16.8,52.16986,4.458179,0,1.075639,322.9055,9.062689,5,1384265381,-0.1094513,-0.8047485,-0.5693207,9.118834,-26.39812,-27.94639,291.5396,291.1959,25,145.118.83.22,10.139.171.151,1,0
2013-11-12 15:11:28.076,169,16.9,52.16987,4.458167,0,1.14132,324.9621,9.001926,5,1384265382,-0.07559204,-0.8252258,-0.5963898,11.65184,-28.26089,-24.74146,275.9937,275.65,25,145.118.83.22,10.139.171.151,1,0
2013-11-12 15:11:28.447,170,17,52.16987,4.458167,0,1.14132,324.9621,9.001926,5,1384265382,-0.09611511,-0.805069,-0.5741425,11.92717,-28.53483,-24.56977,270.958,270.6143,25,145.118.83.22,10.139.171.151,1,0
2013-11-12 15:11:28.733,171,17.1,52.16987,4.458167,0,1.14132,324.9621,9.001926,5,1384265382,-0.1053162,-0.8195496,-0.5750885,12.09236,-27.93217,-24.85592,272.4822,272.1385,25,145.118.83.22,10.139.171.151,1,0
2013-11-12 15:11:29.064,172,17.2,52.16987,4.458167,0,1.14132,324.9621,9.001926,5,1384265382,-0.1502228,-0.8107758,-0.5684814,11.74261,-27.66331,-24.9037,273.2977,272.9539,25,145.118.83.22,10.139.171.151,1,0
2013-11-12 15:11:29.316,173,17.3,52.16987,4.458167,0,1.14132,324.9621,9.001926,5,1384265382,-0.1558075,-0.8174591,-0.5626526,11.19197,-26.34848,-25.93376,276.7542,276.4105,25,145.118.83.22,10.139.171.151,1,0
2013-11-12 15:11:29.531,174,17.4,52.16987,4.458167,0,1.14132,324.9621,9.001926,5,1384265382,-0.1804352,-0.8218079,-0.5598145,10.58626,-23.88317,-27.47882,285.4963,285.1526,25,145.118.83.22,10.139.171.151,1,0
2013-11-12 15:11:29.654,175,17.5,52.16987,4.458167,0,1.14132,324.9621,9.001926,5,1384265382,-0.1844788,-0.8119354,-0.5549927,9.484968,-24.21188,-28.05106,287.8463,287.5026,25,145.118.83.22,10.139.171.151,1,0
2013-11-12 15:11:30.319,176,17.6,52.16988,4.458158,0,1.13381,323.7743,9,5,1384265383,-0.1749268,-0.815979,-0.5491028,10.09068,-23.49968,-28.56609,287.9997,287.6559,25,145.118.83.22,10.139.171.151,1,0
2013-11-12 15:11:30.534,177,17.7,52.16988,4.458158,0,1.13381,323.7743,9,5,1384265383,-0.2023926,-0.8203125,-0.5472412,10.03561,-23.88317,-28.05106,288.1152,287.7715,25,145.118.83.22,10.139.171.151,1,0
2013-11-12 15:11:30.859,178,17.8,52.16988,4.458158,0,1.13381,323.7743,9,5,1384265383,-0.1864014,-0.8118744,-0.5530548,7.282389,-22.45878,-32.62903,301.1486,300.8049,25,145.118.83.22,10.139.171.151,1,0
2013-11-12 15:11:31.176,179,17.9,52.16988,4.458158,0,1.13381,323.7743,9,5,1384265383,-0.1865234,-0.8069458,-0.5491791,7.117197,-24.59538,-29.71057,299.7017,299.358,25,145.118.83.22,10.139.171.151,1,0
2013-11-12 15:11:31.365,180,18,52.16988,4.458158,0,1.13381,323.7743,9,5,1384265383,-0.1900635,-0.8167267,-0.5569458,7.392519,-27.38939,-27.70772,299.4991,299.1554,25,145.118.83.22,10.139.171.151,1,0
2013-11-12 15:11:31.513,181,18.1,52.16988,4.458158,0,1.13381,323.7743,9,5,1384265383,-0.1882324,-0.8157043,-0.5471954,8.493809,-27.93723,-24.38869,292.7247,292.381,25,145.118.83.22,10.139.171.151,1,0
2013-11-12 15:11:31.702,182,18.2,52.16989,4.458143,0,1.127601,332.7858,9,5,1384265384,-0.2380676,-0.8028107,-0.5289307,8.493809,-27.82766,-24.50314,292.8885,292.5448,25,145.118.83.22,10.139.171.151,1,0
2013-11-12 15:11:32.030,183,18.3,52.16989,4.458143,0,1.127601,332.7858,9,5,1384265384,-0.2147827,-0.8190765,-0.5473022,8.934324,-29.58077,-24.04534,293.0648,292.721,25,145.118.83.22,10.139.171.151,1,0
2013-11-12 15:11:32.160,184,18.4,52.16989,4.458143,0,1.127601,332.7858,9,5,1384265384,-0.2289734,-0.8217316,-0.547348,9.154583,-30.01905,-22.21415,292.2766,291.9328,25,145.118.83.22,10.139.171.151,1,0
2013-11-12 15:11:32.333,185,18.5,52.16989,4.458143,0,1.127601,332.7858,9,5,1384265384,-0.2351837,-0.8019562,-0.5357361,9.595098,-29.03292,-22.44305,291.0171,290.6734,25,145.118.83.22,10.139.171.151,1,0
2013-11-12 15:11:32.480,186,18.6,52.16989,4.458143,0,1.127601,332.7858,9,5,1384265384,-0.2418213,-0.8037262,-0.5318604,9.684515,-29.45714,-21.3464,290.8669,290.5232,25,145.118.83.22,10.139.171.151,1,0
2013-11-12 15:11:32.782,187,18.7,52.16989,4.458143,0,1.127601,332.7858,9,5,1384265384,-0.2609253,-0.800415,-0.5319519,10.84086,-27.32055,-19.9158,286.4019,286.0582,25,145.118.83.22,10.139.171.151,1,0
2013-11-12 15:11:33.207,188,18.8,52.16989,4.458143,0,1.127601,332.7858,9,5,1384265384,-0.2609253,-0.800415,-0.5319519,11.39151,-26.77271,-25.75262,292.7359,292.3922,25,145.118.83.22,10.139.171.151,1,0
2013-11-12 15:11:33.416,189,18.9,52.1699,4.458131,0,1.094912,327.2686,9.011088,10,1384265385,-0.2606964,-0.8102417,-0.5338745,11.99721,-26.93707,-25.12317,292.4164,292.0727,25,145.118.83.22,10.139.171.151,1,0
2013-11-12 15:11:33.622,190,19,52.1699,4.458131,0,1.094912,327.2686,9.011088,10,1384265385,-0.3320007,-0.816391,-0.5078583,13.8694,-26.8275,-25.35205,286.942,286.5982,25,145.118.83.22,10.139.171.151,1,0
2013-11-12 15:11:33.790,191,19.1,52.1699,4.458131,0,1.094912,327.2686,9.011088,10,1384265385,-0.3041382,-0.825882,-0.5232849,13.26369,-26.22487,-24.95149,285.6044,285.2607,25,145.118.83.22,10.139.171.151,1,0
2013-11-12 15:11:34.061,192,19.2,52.1699,4.458131,0,1.094912,327.2686,9.011088,10,1384265385,-0.2706604,-0.7941589,-0.509613,13.92446,-27.64926,-23.57812,280.3011,279.9574,25,145.118.83.22,10.139.171.151,1,0
2013-11-12 15:11:34.244,193,19.3,52.1699,4.458131,0,1.094912,327.2686,9.011088,10,1384265385,-0.3110046,-0.8187866,-0.5116577,12.21747,-28.79973,-23.7498,278.0638,277.7201,25,145.118.83.22,10.139.171.151,1,0
2013-11-12 15:11:34.672,194,19.4,52.1699,4.458131,0,1.094912,327.2686,9.011088,10,1384265385,-0.272049,-0.8176117,-0.5115204,13.75927,-29.45715,-24.43648,277.463,277.1193,25,145.118.83.22,10.139.171.151,1,0
2013-11-12 15:11:34.841,195,19.5,52.1699,4.458131,0,1.094912,327.2686,9.011088,10,1384265385,-0.2768097,-0.8165588,-0.5134735,13.70421,-31.26503,-23.46368,273.582,273.2383,25,145.118.83.22,10.139.171.151,1,0
2013-11-12 15:11:35.111,196,19.6,52.1699,4.458131,0,1.094912,327.2686,9.011088,10,1384265385,-0.2744904,-0.8332977,-0.5212097,14.19978,-31.75809,-22.14753,269.0769,268.7332,25,145.118.83.22,10.139.171.151,1,0
2013-11-12 15:11:35.269,197,19.7,52.1699,4.458131,0,1.094912,327.2686,9.011088,10,1384265385,-0.2790985,-0.7998505,-0.508667,15.79665,-32.14158,-20.94583,265.7473,265.4035,25,145.118.83.22,10.139.171.151,1,0
2013-11-12 15:11:35.433,198,19.8,52.16991,4.458119,0,1.059094,307.9636,9,5,1384265386,-0.1856232,-1.085266,-0.4160309,16.67767,-32.36072,-20.1447,263.9815,263.6378,25,145.118.83.22,10.139.171.151,1,0
2013-11-12 15:11:35.616,199,19.9,52.16991,4.458119,0,1.059094,307.9636,9,5,1384265386,-0.06518555,-0.7683868,-0.4485321,16.67767,-31.92245,-16.82572,257.9228,257.579,25,145.118.83.22,10.139.171.151,1,0
2013-11-12 15:11:35.832,200,20,52.16991,4.458119,0,1.059094,307.9636,9,5,1384265386,-0.4138947,-0.7753906,-0.4742126,17.06312,-31.75809,-17.34074,258.0398,257.6961,25,145.118.83.22,10.139.171.151,1,0
2013-11-12 15:11:36.109,201,20.1,52.16991,4.458119,0,1.059094,307.9636,9,5,1384265386,-0.3367004,-0.8621674,-0.5019073,16.7878,-31.15545,-17.97019,260.1267,259.783,25,145.118.83.22,10.139.171.151,1,0
2013-11-12 15:11:36.312,202,20.2,52.16991,4.458119,0,1.059094,307.9636,9,5,1384265386,-0.2529907,-0.8208618,-0.5036316,16.73274,-31.21025,-18.02742,260.4964,260.1527,25,145.118.83.22,10.139.171.151,1,0
2013-11-12 15:11:36.434,203,20.3,52.16991,4.458119,0,1.059094,307.9636,9,5,1384265386,-0.3382416,-0.7955933,-0.4913788,15.85171,-30.44326,-20.20193,261.88,261.5363,25,145.118.83.22,10.139.171.151,1,0
2013-11-12 15:11:36.577,204,20.4,52.16991,4.458119,0,1.059094,307.9636,9,5,1384265386,-0.3058777,-0.8327026,-0.5252228,16.56754,-30.05977,-20.1447,263.455,263.1113,25,145.118.83.22,10.139.171.151,1,0
2013-11-12 15:11:36.730,205,20.5,52.16991,4.458119,0,1.059094,307.9636,9,5,1384265386,-0.3161774,-0.8431244,-0.5116272,16.1821,-29.89542,-20.20193,265.8998,265.5561,25,145.118.83.22,10.139.171.151,1,0
2013-11-12 15:11:37.003,206,20.6,52.16991,4.458103,0,1.048777,291.9124,9,5,1384265387,-0.3134613,-0.8017883,-0.4718018,16.62261,-30.6624,-19.74413,264.8114,264.4677,25,145.118.83.22,10.139.171.151,1,0
2013-11-12 15:11:37.257,207,20.7,52.16991,4.458103,0,1.048777,291.9124,9,5,1384265387,-0.3255005,-0.8124542,-0.4903107,15.79665,-31.92244,-18.65688,261.7843,261.4406,25,145.118.83.22,10.139.171.151,1,0
2013-11-12 15:11:37.422,208,20.8,52.16991,4.458103,0,1.048777,291.9124,9,5,1384265387,-0.3171387,-0.8019714,-0.5010223,14.42004,-31.86765,-17.68407,258.9776,258.6339,25,145.118.83.22,10.139.171.151,1,0
2013-11-12 15:11:37.551,209,20.9,52.16991,4.458103,0,1.048777,291.9124,9,5,1384265387,-0.3415833,-0.7721558,-0.5002136,14.91562,-33.1277,-17.16907,255.2001,254.8564,25,145.118.83.22,10.139.171.151,1,0
2013-11-12 15:11:37.693,210,21,52.16991,4.458103,0,1.048777,291.9124,9,5,1384265387,-0.3874817,-0.8034668,-0.4964142,14.30991,-32.52506,-17.45518,253.8568,253.5131,25,145.118.83.22,10.139.171.151,1,0
2013-11-12 15:11:37.871,211,21.1,52.16991,4.458103,0,1.048777,291.9124,9,5,1384265387,-0.3819733,-0.7938385,-0.5022583,16.56754,-34.33295,-15.10901,253.0364,252.6927,25,145.118.83.22,10.139.171.151,1,0
2013-11-12 15:11:38.251,212,21.2,52.16991,4.458103,0,1.048777,291.9124,9,5,1384265387,-0.4135437,-0.7872925,-0.4946136,16.1821,-33.73032,-13.90731,247.0609,246.7172,25,145.118.83.22,10.139.171.151,1,0
2013-11-12 15:11:38.434,213,21.3,52.16991,4.458103,0,1.048777,291.9124,9,5,1384265387,-0.4221039,-0.7842865,-0.5063477,18.99037,-34.77123,-11.56113,243.0978,242.754,25,145.118.83.22,10.139.171.151,1,0
2013-11-12 15:11:38.593,214,21.4,52.16991,4.458103,0,1.048777,291.9124,9,5,1384265387,-0.4168243,-0.8041382,-0.52771,20.03659,-35.15472,-11.73281,243.1531,242.8093,25,145.118.83.22,10.139.171.151,1,0
2013-11-12 15:11:38.759,215,21.5,52.16991,4.458086,0,1.033127,284.7218,9,10,1384265389,-0.3453522,-0.7740021,-0.4963226,20.09166,-36.08606,-11.67558,243.0547,242.711,25,145.118.83.22,10.139.171.151,1,0
2013-11-12 15:11:38.985,216,21.6,52.16991,4.458086,0,1.033127,284.7218,9,10,1384265389,-0.3885345,-0.7602844,-0.4790192,19.04544,-34.82602,-12.30505,242.3895,242.0457,25,145.118.83.22,10.139.171.151,1,0
2013-11-12 15:11:39.109,217,21.7,52.16991,4.458086,0,1.033127,284.7218,9,10,1384265389,-0.3357849,-0.8153839,-0.5127411,20.14672,-35.04516,-10.13054,240.1648,239.8211,25,145.118.83.22,10.139.171.151,1,0
2013-11-12 15:11:39.229,218,21.8,52.16991,4.458086,0,1.033127,284.7218,9,10,1384265389,-0.3604126,-0.7814941,-0.4954071,19.59608,-35.26429,-10.24499,239.9906,239.6469,25,145.118.83.22,10.139.171.151,1,0
2013-11-12 15:11:39.341,219,21.9,52.16991,4.458086,0,1.033127,284.7218,9,10,1384265389,-0.4115753,-0.7519379,-0.4713287,18.60492,-35.593,-11.50391,240.1489,239.8052,25,145.118.83.22,10.139.171.151,1,0
2013-11-12 15:11:39.466,220,22,52.16991,4.458086,0,1.033127,284.7218,9,10,1384265389,-0.4275665,-0.8005524,-0.4800262,18.77011,-35.42864,-12.01893,240.4039,240.0602,25,145.118.83.22,10.139.171.151,1,0
2013-11-12 15:11:39.597,221,22.1,52.16991,4.458086,0,1.033127,284.7218,9,10,1384265389,-0.3633118,-0.8224945,-0.4943237,19.32076,-35.97649,-10.64555,238.4594,238.1157,25,145.118.83.22,10.139.171.151,1,0
2013-11-12 15:11:39.726,222,22.2,52.16991,4.458086,0,1.033127,284.7218,9,10,1384265389,-0.3673859,-0.8143921,-0.4719849,20.09166,-37.18175,-8.471054,234.5966,234.2529,25,145.118.83.22,10.139.171.151,1,0
2013-11-12 15:11:39.997,223,22.3,52.16991,4.458086,0,1.033127,284.7218,9,10,1384265389,-0.4550934,-0.8104401,-0.4440765,18.99037,-37.62003,-7.326576,230.9862,230.6424,25,145.118.83.22,10.139.171.151,1,0
2013-11-12 15:11:40.245,224,22.4,52.16991,4.458059,0,1.050106,252.8887,9,5,1384265389,-0.4138184,-0.8231812,-0.4653168,18.16441,-38.00352,-8.299385,230.8757,230.532,25,145.118.83.22,10.139.171.151,1,0
2013-11-12 15:11:40.397,225,22.5,52.16991,4.458059,0,1.050106,252.8887,9,5,1384265389,-0.407547,-0.8057098,-0.4663086,19.70621,-36.68869,-7.269348,232.4121,232.0684,25,145.118.83.22,10.139.171.151,1,0
2013-11-12 15:11:40.586,226,22.6,52.16991,4.458059,0,1.050106,252.8887,9,5,1384265389,-0.4208832,-0.8091583,-0.4439545,19.26569,-37.01739,-6.353775,230.9563,230.6126,25,145.118.83.22,10.139.171.151,1,0
2013-11-12 15:11:40.803,227,22.7,52.16991,4.458059,0,1.050106,252.8887,9,5,1384265389,-0.3605804,-0.8288269,-0.4319916,18.71505,-35.70256,-9.558304,235.4841,235.1404,25,145.118.83.22,10.139.171.151,1,0
2013-11-12 15:11:41.100,228,22.8,52.16991,4.458059,0,1.050106,252.8887,9,5,1384265389,-0.3605804,-0.8288269,-0.4319916,18.49479,-35.70256,-9.901649,236.0015,235.6577,25,145.118.83.22,10.139.171.151,1,0
2013-11-12 15:11:41.220,229,22.9,52.16991,4.458059,0,1.050106,252.8887,9,5,1384265389,-0.3464661,-0.8690033,-0.4133301,17.77896,-35.97649,-11.21779,236.3481,236.0044,25,145.118.83.22,10.139.171.151,1,0
2013-11-12 15:11:41.359,230,23,52.16991,4.458059,0,1.050106,252.8887,9,5,1384265389,-0.2793121,-0.8574219,-0.3877869,17.5587,-35.2095,-13.73564,238.2453,237.9016,25,145.118.83.22,10.139.171.151,1,0
2013-11-12 15:11:41.591,231,23.1,52.16991,4.458059,0,1.050106,252.8887,9,5,1384265389,-0.1809998,-0.8796082,-0.3571625,17.22832,-33.1277,-14.42232,246.4144,246.0707,25,145.118.83.22,10.139.171.151,1,0
2013-11-12 15:11:41.703,232,23.2,52.16991,4.458059,0,1.050106,252.8887,9,5,1384265389,-0.1330261,-0.8888092,-0.406601,17.83402,-34.82602,-13.79286,244.0963,243.7526,25,145.118.83.22,10.139.171.151,1,0
2013-11-12 15:11:42.280,233,23.3,52.16991,4.45804,0,1.041075,285.5402,9,5,1384265390,-0.1711731,-0.833725,-0.4497375,16.953,-35.15472,-14.59399,245.0108,244.6671,25,145.118.83.22,10.139.171.151,1,0
2013-11-12 15:11:42.722,234,23.4,52.16991,4.45804,0,1.041075,285.5402,9,5,1384265390,-0.3205414,-0.8185577,-0.5058441,17.33845,-35.97649,-11.44669,241.4486,241.1049,25,145.118.83.22,10.139.171.151,1,0
2013-11-12 15:11:43.061,235,23.5,52.16991,4.45804,0,1.041075,285.5402,9,5,1384265390,-0.2861786,-0.769928,-0.5652161,17.72389,-34.60688,-13.10618,244.1126,243.7689,25,145.118.83.22,10.139.171.151,1,0
2013-11-12 15:11:43.344,236,23.6,52.16991,4.45804,0,1.041075,285.5402,9,5,1384265390,-0.4981384,-0.8959198,-0.5910339,16.40235,-33.51118,-12.87728,243.5023,243.1586,25,145.118.83.22,10.139.171.151,1,0
