time,timestamp,recordtime,lat,long,alt,speed,course,verticalAccuracy,horizontalAccuracy,locTimeStamp,accelerationX,accelerationY,accelerationZ,HeadingX,HeadingY,HeadingZ,TrueHeading,MagneticHeading,HeadingAccuracy,en0,pdp_ip0,DeviceOrientation,Event
2013-11-12 15:20:32.476,1,0.1,52.17021,4.457838,0,0.4614138,56.04787,9.5,5,1384265725,-0.2106781,-0.7992249,-0.5064392,2.255352,-12.86726,-34.30582,230.0923,229.7485,26,0.0.0.0,10.139.171.151,5,0
2013-11-12 15:20:32.758,2,0.2,52.17021,4.457838,0,0.4614138,56.04787,9.5,5,1384265725,-0.1877441,-0.8792725,-0.5518951,3.411995,-11.71554,-37.80855,215.0126,214.6689,26,0.0.0.0,10.139.171.151,5,0
2013-11-12 15:20:33.061,3,0.3,52.17021,4.457838,0,0.4614138,56.04787,9.5,5,1384265725,-0.1877441,-0.8792725,-0.5518951,5.61512,-11.71554,-39.07184,203.8941,203.5504,26,0.0.0.0,10.139.171.151,5,0
2013-11-12 15:20:33.173,4,0.4,52.17021,4.457838,0,0.4614138,56.04787,9.5,5,1384265725,-0.1593018,-0.801178,-0.4984436,6.716681,-11.82522,-39.5312,200.7332,200.3895,26,0.0.0.0,10.139.171.151,5,0
2013-11-12 15:20:33.305,5,0.5,52.17021,4.457838,0,0.4614138,56.04787,9.5,5,1384265725,-0.2270508,-0.8722992,-0.5150757,6.992071,-11.88007,-39.93317,193.7461,193.4024,26,0.0.0.0,10.139.171.151,5,0
2013-11-12 15:20:33.429,6,0.6,52.17021,4.457838,0,0.4614138,56.04787,9.5,5,1384265725,-0.1882477,-0.7867279,-0.479126,8.754572,-12.64788,-38.44019,184.5088,184.165,26,0.0.0.0,10.139.171.151,5,0
2013-11-12 15:20:33.540,7,0.7,52.17021,4.457838,0,0.4614138,56.04787,9.5,5,1384265725,-0.1626587,-0.8066559,-0.57341,8.589336,-14.23835,-37.34918,177.9401,177.5964,26,0.0.0.0,10.139.171.151,5,0
2013-11-12 15:20:33.647,8,0.8,52.17023,4.457833,0,0.5097016,351.8581,9.5,5,1384265727,-0.1950989,-0.9767456,-0.5409851,9.029963,-14.45772,-38.26793,171.7754,171.4317,26,0.0.0.0,10.139.171.151,1,0
2013-11-12 15:20:33.984,9,0.9,52.17023,4.457833,0,0.5097016,351.8581,9.5,5,1384265727,-0.1950531,-0.8852844,-0.5859833,10.07645,-15.60944,-38.21051,159.1899,158.8462,26,0.0.0.0,10.139.171.151,1,0
2013-11-12 15:20:34.169,10,1,52.17023,4.457833,0,0.5097016,351.8581,9.5,5,1384265727,-0.1718903,-0.8808289,-0.4739685,10.1866,-16.48694,-38.21051,154.712,154.3683,26,0.0.0.0,10.139.171.151,1,0
2013-11-12 15:20:34.303,11,1.1,52.17023,4.457833,0,0.5097016,351.8581,9.5,5,1384265727,-0.1392517,-0.769043,-0.468277,11.89402,-17.74835,-37.57886,150.196,149.8523,26,0.0.0.0,10.139.171.151,1,0
2013-11-12 15:20:34.517,12,1.2,52.17023,4.457833,0,0.5097016,351.8581,9.5,5,1384265727,-0.1607361,-0.8945312,-0.5595398,13.32606,-18.29679,-36.20074,140.9459,140.6022,26,0.0.0.0,10.139.171.151,1,0
2013-11-12 15:20:34.701,13,1.3,52.17023,4.457833,0,0.5097016,351.8581,9.5,5,1384265727,-0.1483612,-0.829422,-0.4633026,14.42762,-18.95491,-34.01871,136.302,135.9583,26,0.0.0.0,10.139.171.151,1,0
2013-11-12 15:20:35.038,14,1.4,52.17023,4.457833,0,0.5097016,351.8581,9.5,5,1384265727,-0.1607208,-0.9291077,-0.6003418,17.12645,-20.54538,-31.31989,129.4951,129.1514,26,0.0.0.0,10.139.171.151,1,0
2013-11-12 15:20:35.250,15,1.5,52.17023,4.457833,0,0.5097016,351.8581,9.5,5,1384265727,-0.1621857,-0.919693,-0.5361328,18.11785,-20.98413,-29.25269,126.8782,126.5345,26,0.0.0.0,10.139.171.151,1,0
2013-11-12 15:20:35.486,16,1.6,52.17023,4.457833,0,0.5097016,351.8581,9.5,5,1384265727,-0.1541748,-0.606781,-0.496994,19.21942,-21.86163,-26.72613,124.0265,123.6828,26,0.0.0.0,10.139.171.151,1,0
2013-11-12 15:20:35.819,17,1.7,52.17023,4.457833,0,0.5097016,351.8581,9.5,5,1384265727,-0.2129974,-0.9869995,-0.7425537,19.88035,-21.64226,-26.72613,120.7887,120.445,26,0.0.0.0,10.139.171.151,1,0
2013-11-12 15:20:36.052,18,1.8,52.17023,4.457833,0,0.5097016,351.8581,9.5,5,1384265727,-0.03723145,-0.5921021,-0.5646973,20.32098,-22.1907,-23.74019,118.3249,117.9811,26,0.0.0.0,10.139.171.151,1,0
2013-11-12 15:20:36.393,19,1.9,52.17023,4.457819,0,0.5482798,291.0021,9.5,5,1384265727,-0.2084961,-1.048248,-0.5885468,22.19363,-24.60382,-21.55816,113.0928,112.7491,26,0.0.0.0,10.139.171.151,1,0
2013-11-12 15:20:36.761,20,2,52.17023,4.457819,0,0.5482798,291.0021,9.5,5,1384265727,-0.158844,-0.7805939,-0.4907227,21.42254,-23.50695,-22.93629,113.1668,112.823,26,0.0.0.0,10.139.171.151,1,0
2013-11-12 15:20:37.099,21,2.1,52.17023,4.457819,0,0.5482798,291.0021,9.5,5,1384265727,-0.2344055,-0.8399506,-0.5200653,21.20223,-23.94569,-22.59175,112.8457,112.502,26,0.0.0.0,10.139.171.151,1,0
2013-11-12 15:20:37.312,22,2.2,52.17023,4.457819,0,0.5482798,291.0021,9.5,5,1384265727,-0.2128906,-0.6986389,-0.5174255,20.98191,-23.17789,-24.19957,112.5344,112.1907,26,0.0.0.0,10.139.171.151,1,0
2013-11-12 15:20:37.493,23,2.3,52.17024,4.457811,0,0.5398383,273.1158,9.5,5,1384265728,-0.1883392,-0.8369293,-0.6289368,21.42254,-23.0682,-23.39566,112.4843,112.1406,26,0.0.0.0,10.139.171.151,1,0
2013-11-12 15:20:37.767,24,2.4,52.17024,4.457811,0,0.5398383,273.1158,9.5,5,1384265728,-0.1823273,-0.8236847,-0.5549622,20.37606,-23.45211,-23.56792,112.4024,112.0587,26,0.0.0.0,10.139.171.151,1,0
2013-11-12 15:20:38.301,25,2.5,52.17024,4.457811,0,0.5398383,273.1158,9.5,5,1384265728,-0.193985,-0.889267,-0.5908356,21.09207,-23.61664,-23.05113,112.2438,111.9001,26,0.0.0.0,10.139.171.151,1,0
2013-11-12 15:20:38.555,26,2.6,52.17024,4.457811,0,0.5398383,273.1158,9.5,5,1384265728,-0.1361389,-0.8051147,-0.5587006,21.31238,-23.61664,-21.78785,112.27,111.9263,26,0.0.0.0,10.139.171.151,1,0
2013-11-12 15:20:38.798,27,2.7,52.17024,4.457811,0,0.5398383,273.1158,9.5,5,1384265728,-0.1132965,-0.8139496,-0.5157623,20.48621,-23.5618,-22.30464,112.2975,111.9538,26,0.0.0.0,10.139.171.151,1,0
2013-11-12 15:20:39.111,28,2.8,52.17024,4.457811,0,0.5398383,273.1158,9.5,5,1384265728,-0.143219,-0.9171143,-0.5341034,20.70652,-23.89085,-22.87886,112.3431,111.9994,26,0.0.0.0,10.139.171.151,1,0
2013-11-12 15:20:39.431,29,2.9,52.17024,4.457811,0,0,273.1158,9.5,5,1384265729,-0.1255188,-0.7747345,-0.5275879,20.87176,-23.06819,-21.673,112.3742,112.0305,26,0.0.0.0,10.139.171.151,1,0
2013-11-12 15:20:39.610,30,3,52.17024,4.457811,0,0,273.1158,9.5,5,1384265729,-0.09298706,-0.8271332,-0.5243988,21.03699,-23.56178,-18.97417,112.4055,112.0618,26,0.0.0.0,10.139.171.151,1,0
2013-11-12 15:20:39.734,31,3.1,52.17024,4.457811,0,0,273.1158,9.5,5,1384265729,-0.07720947,-0.7314148,-0.4924927,20.70652,-23.34241,-19.66324,112.4269,112.0832,26,0.0.0.0,10.139.171.151,1,0
2013-11-12 15:20:40.098,32,3.2,52.17024,4.457811,0,0,273.1158,9.5,5,1384265729,-0.1156616,-0.8643799,-0.583786,20.32098,-24.38444,-19.14644,112.4654,112.1217,26,0.0.0.0,10.139.171.151,1,0
2013-11-12 15:20:40.284,33,3.3,52.17024,4.457811,0,0,273.1158,9.5,5,1384265729,-0.1387634,-0.6925049,-0.538559,20.65145,-24.05538,-19.60582,112.4839,112.1401,26,0.0.0.0,10.139.171.151,1,0
2013-11-12 15:20:40.441,34,3.4,52.17024,4.457811,0,0,273.1158,9.5,5,1384265729,-0.1992798,-0.794754,-0.523941,21.97332,-23.61663,-20.18004,112.5187,112.1749,26,0.0.0.0,10.139.171.151,1,0
2013-11-12 15:20:40.616,35,3.5,52.17024,4.457811,0,0,273.1158,9.5,5,1384265729,-0.2281036,-0.8141327,-0.5707245,20.37606,-24.11022,-19.66324,112.5401,112.1964,26,0.0.0.0,10.139.171.151,1,0
2013-11-12 15:20:40.749,36,3.6,52.17024,4.457811,0,0,273.1158,9.5,5,1384265729,-0.1794281,-0.8546295,-0.6200867,20.7616,-23.94569,-19.60582,112.5536,112.2098,26,0.0.0.0,10.139.171.151,1,0
2013-11-12 15:20:41.141,37,3.7,52.17024,4.457811,0,0,273.1158,9.5,5,1384265729,-0.1522827,-0.8580475,-0.5060577,20.54129,-24.16507,-19.26128,112.9686,112.6249,26,0.0.0.0,10.139.171.151,1,0
2013-11-12 15:20:41.429,38,3.8,52.17024,4.457811,0,0,273.1158,9.5,5,1384265730,-0.131134,-0.7804565,-0.5246735,20.48621,-23.45209,-19.89293,112.5294,112.1856,26,0.0.0.0,10.139.171.151,1,0
2013-11-12 15:20:41.610,39,3.9,52.17024,4.457811,0,0,273.1158,9.5,5,1384265730,-0.1413574,-0.8666229,-0.5663605,18.83387,-22.90365,-20.3523,111.5902,111.2465,26,0.0.0.0,10.139.171.151,1,0
2013-11-12 15:20:42.015,40,4,52.17024,4.457811,0,0,273.1158,9.5,5,1384265730,-0.118454,-0.8354645,-0.5274048,18.33817,-24.71349,-21.21363,110.2135,109.8698,26,0.0.0.0,10.139.171.151,1,0
2013-11-12 15:20:42.434,41,4.1,52.17024,4.457811,0,0,273.1158,9.5,5,1384265730,-0.08459473,-0.8578033,-0.5457001,18.06277,-25.42646,-21.84527,110.1148,109.7711,26,0.0.0.0,10.139.171.151,1,0
2013-11-12 15:20:42.763,42,4.2,52.17024,4.457811,0,0,273.1158,9.5,5,1384265730,-0.08509827,-0.8353424,-0.5486908,18.06277,-25.31677,-21.50074,110.4964,110.1527,26,0.0.0.0,10.139.171.151,1,0
2013-11-12 15:20:43.134,43,4.3,52.17024,4.457811,0,0,273.1158,9.5,5,1384265730,-0.0954895,-0.8418121,-0.531189,18.0077,-22.62943,-20.63941,110.6644,110.3206,26,0.0.0.0,10.139.171.151,1,0
2013-11-12 15:20:43.282,44,4.4,52.17024,4.457811,0,0,273.1158,9.5,5,1384265730,-0.1170197,-0.9009399,-0.5233307,19.71512,-24.87803,-18.97417,110.8093,110.4656,26,0.0.0.0,10.139.171.151,1,0
2013-11-12 15:20:43.414,45,4.5,52.17024,4.457811,0,0,273.1158,9.5,5,1384265730,-0.1152344,-0.850296,-0.5380554,18.66863,-25.70069,-19.37613,111.561,111.2173,26,0.0.0.0,10.139.171.151,1,0
2013-11-12 15:20:43.549,46,4.6,52.17024,4.457811,0,0,273.1158,9.5,5,1384265730,-0.1394348,-0.830307,-0.542099,19.66004,-24.38444,-19.60582,111.5688,111.225,26,0.0.0.0,10.139.171.151,1,0
2013-11-12 15:20:43.698,47,4.7,52.17025,4.457805,0,0.05818215,319.7669,10.4327,10,1384265731,-0.1394348,-0.830307,-0.542099,19.7702,-24.16507,-19.14644,111.5168,111.173,26,0.0.0.0,10.139.171.151,1,0
2013-11-12 15:20:44.033,48,4.8,52.17025,4.457805,0,0.05818215,319.7669,10.4327,10,1384265731,-0.08479309,-0.8536987,-0.5233307,21.31238,-23.72631,-18.34254,111.0289,110.6852,26,0.0.0.0,10.139.171.151,1,0
2013-11-12 15:20:44.206,49,4.9,52.17025,4.457805,0,0.05818215,319.7669,10.4327,10,1384265731,-0.1253052,-0.867691,-0.5380554,21.69793,-24.32959,-19.31871,111.0177,110.674,26,0.0.0.0,10.139.171.151,1,0
2013-11-12 15:20:44.386,50,5,52.17025,4.457805,0,0.05818215,319.7669,10.4327,10,1384265731,-0.1107941,-0.8002472,-0.5050812,20.48621,-24.43928,-20.46715,110.5406,110.1968,26,0.0.0.0,10.139.171.151,1,0
2013-11-12 15:20:44.590,51,5.1,52.17025,4.457805,0,0.05818215,319.7669,10.4327,10,1384265731,-0.0413208,-0.8801422,-0.5425568,20.81668,-23.89085,-21.50074,112.5383,112.1946,26,0.0.0.0,10.139.171.151,1,0
2013-11-12 15:20:44.766,52,5.2,52.17025,4.457805,0,0.05818215,319.7669,10.4327,10,1384265731,-0.08525085,-0.7808533,-0.575119,20.92684,-22.02616,-21.84527,114.9684,114.6247,26,0.0.0.0,10.139.171.151,1,0
2013-11-12 15:20:45.002,53,5.3,52.17025,4.457805,0,0.05818215,319.7669,10.4327,10,1384265731,-0.08859253,-0.8881836,-0.5641327,22.63426,-21.2035,-17.998,114.8043,114.4606,26,0.0.0.0,10.139.171.151,1,0
2013-11-12 15:20:45.153,54,5.4,52.17025,4.457805,0,0.05818215,319.7669,10.4327,10,1384265731,-0.09487915,-0.945755,-0.5679169,22.5241,-18.02257,-16.96441,113.8353,113.4916,26,0.0.0.0,10.139.171.151,1,0
2013-11-12 15:20:45.297,55,5.5,52.17025,4.457805,0,0.05818215,319.7669,10.4327,10,1384265731,-0.1604462,-0.7372437,-0.5657959,24.83738,-17.91288,-15.93082,113.0665,112.7228,26,0.0.0.0,10.139.171.151,1,0
2013-11-12 15:20:45.467,56,5.6,52.17025,4.457796,0,0.1844581,303.4316,10.34051,10,1384265732,-0.1042633,-0.8692627,-0.5584106,23.73582,-19.11944,-14.43785,111.9513,111.6076,26,0.0.0.0,10.139.171.151,1,0
2013-11-12 15:20:45.613,57,5.7,52.17025,4.457796,0,0.1844581,303.4316,10.34051,10,1384265732,-0.1227112,-0.8130188,-0.5391693,24.50692,-20.87444,-14.43785,109.0431,108.6993,26,0.0.0.0,10.139.171.151,1,0
2013-11-12 15:20:45.826,58,5.8,52.17025,4.457796,0,0.1844581,303.4316,10.34051,10,1384265732,-0.135498,-0.7979431,-0.520752,23.84598,-22.081,-15.3566,106.3249,105.9812,26,0.0.0.0,10.139.171.151,1,0
2013-11-12 15:20:46.117,59,5.9,52.17025,4.457796,0,0.1844581,303.4316,10.34051,10,1384265732,-0.1171265,-0.8204041,-0.4806976,24.45184,-22.02616,-13.57652,105.8742,105.5305,26,0.0.0.0,10.139.171.151,1,0
2013-11-12 15:20:46.334,60,6,52.17025,4.457796,0,0.1844581,303.4316,10.34051,10,1384265732,-0.1827545,-0.8975525,-0.5080261,25.0577,-23.72632,-12.60035,101.5764,101.2327,26,0.0.0.0,10.139.171.151,1,0
2013-11-12 15:20:46.476,61,6.1,52.17025,4.457796,0,0.1844581,303.4316,10.34051,10,1384265732,-0.1965027,-0.8039703,-0.4576874,27.75653,-24.21992,-11.50933,99.66457,99.32085,26,0.0.0.0,10.139.171.151,1,0
2013-11-12 15:20:46.651,62,6.2,52.17025,4.457796,0,0.1844581,303.4316,10.34051,10,1384265732,-0.1951752,-0.8523865,-0.5140381,27.86668,-25.42647,-8.753082,96.14288,95.79916,26,0.0.0.0,10.139.171.151,1,0
2013-11-12 15:20:46.774,63,6.3,52.17025,4.457796,0,0.1844581,303.4316,10.34051,10,1384265732,-0.2303009,-0.8509064,-0.5336456,29.13348,-24.27475,-8.580818,96.46725,96.12354,26,0.0.0.0,10.139.171.151,1,0
2013-11-12 15:20:46.869,64,6.4,52.17025,4.457796,0,0.1844581,303.4316,10.34051,10,1384265732,-0.1642303,-0.7120056,-0.4831238,28.80301,-23.94568,-8.580818,97.9362,97.59248,26,0.0.0.0,10.139.171.151,1,0
2013-11-12 15:20:47.092,65,6.5,52.17025,4.457774,0,0.3784229,254.6793,10.29801,10,1384265733,-0.1683502,-0.8224487,-0.4925995,28.25223,-22.30037,-9.958939,102.2477,101.904,26,0.0.0.0,10.139.171.151,1,0
2013-11-12 15:20:47.225,66,6.6,52.17025,4.457774,0,0.3784229,254.6793,10.29801,10,1384265733,-0.1658936,-0.8805695,-0.5381927,27.42606,-18.84521,-12.42809,109.7721,109.4283,26,0.0.0.0,10.139.171.151,1,0
2013-11-12 15:20:47.348,67,6.7,52.17025,4.457774,0,0.3784229,254.6793,10.29801,10,1384265733,-0.107132,-0.8747406,-0.5243225,26.65496,-18.51616,-15.75855,113.2295,112.8858,26,0.0.0.0,10.139.171.151,1,0
2013-11-12 15:20:47.519,68,6.8,52.17025,4.457774,0,0.3784229,254.6793,10.29801,10,1384265733,-0.1291199,-0.8320923,-0.5011902,27.09559,-14.34803,-13.69136,115.9523,115.6086,26,0.0.0.0,10.139.171.151,1,0
2013-11-12 15:20:47.793,69,6.9,52.17025,4.457774,0,0.3784229,254.6793,10.29801,10,1384265733,-0.07009888,-0.832428,-0.51651,27.04051,-14.1835,-11.79644,273.2824,272.9387,25,0.0.0.0,10.139.171.151,1,0
2013-11-12 15:20:48.153,70,7,52.17025,4.457774,0,0.3784229,254.6793,10.29801,10,1384265733,-0.03717041,-0.80896,-0.5514984,26.98543,-15.4449,-13.11714,273.5952,273.2515,25,0.0.0.0,10.139.171.151,1,0
2013-11-12 15:20:48.315,71,7.1,52.17025,4.457774,0,0.3784229,254.6793,10.29801,10,1384265733,-0.08811951,-0.7769775,-0.5868378,26.93035,-17.14506,-15.24175,275.3252,274.9815,25,0.0.0.0,10.139.171.151,1,0
2013-11-12 15:20:48.478,72,7.2,52.17025,4.457774,0,0.3784229,254.6793,10.29801,10,1384265733,-0.1060944,-0.8338623,-0.5390472,26.21434,-17.74834,-15.41402,275.9892,275.6454,25,0.0.0.0,10.139.171.151,1,0
2013-11-12 15:20:48.648,73,7.3,52.17025,4.457733,0,0.6146825,270.0404,10.3091,10,1384265734,-0.07028198,-0.8058624,-0.6061554,25.99402,-20.05178,-16.10308,274.5528,274.2091,25,0.0.0.0,10.139.171.151,1,0
2013-11-12 15:20:48.790,74,7.4,52.17025,4.457733,0,0.6146825,270.0404,10.3091,10,1384265734,-0.03945923,-0.7913513,-0.5534973,24.78231,-20.38085,-17.13667,276.9651,276.6214,25,0.0.0.0,10.139.171.151,1,0
2013-11-12 15:20:49.009,75,7.5,52.17025,4.457733,0,0.6146825,270.0404,10.3091,10,1384265734,-0.1441193,-0.829422,-0.5635529,25.49832,-20.43568,-18.22769,277.3998,277.0561,25,0.0.0.0,10.139.171.151,1,0
2013-11-12 15:20:49.205,76,7.6,52.17025,4.457733,0,0.6146825,270.0404,10.3091,10,1384265734,-0.09513855,-0.9059601,-0.7072296,24.06629,-20.54537,-17.76832,276.7824,276.4387,25,0.0.0.0,10.139.171.151,1,0
2013-11-12 15:20:49.340,77,7.7,52.17025,4.457733,0,0.6146825,270.0404,10.3091,10,1384265734,-0.1051331,-0.7488861,-0.5431519,25.66356,-16.3224,-16.90699,279.6312,279.2874,25,0.0.0.0,10.139.171.151,1,0
2013-11-12 15:20:49.460,78,7.8,52.17025,4.457733,0,0.6146825,270.0404,10.3091,10,1384265734,-0.09872437,-0.8792419,-0.680069,25.49832,-14.29318,-15.93082,279.8,279.4563,25,0.0.0.0,10.139.171.151,1,0
2013-11-12 15:20:49.553,79,7.9,52.17025,4.457733,0,0.6146825,270.0404,10.3091,10,1384265734,-0.1127625,-0.9140472,-0.5583344,26.71004,-14.40287,-15.24175,280.1305,279.7867,25,0.0.0.0,10.139.171.151,1,0
2013-11-12 15:20:49.685,80,8,52.17026,4.457689,0,0.8214371,280.1143,10.32417,10,1384265735,0.01564026,-0.9482727,-0.6015625,26.15926,-14.73193,-17.30894,283.1624,282.8186,25,0.0.0.0,10.139.171.151,1,0
2013-11-12 15:20:49.853,81,8.1,52.17026,4.457689,0,0.8214371,280.1143,10.32417,10,1384265735,-0.1061401,-0.6590729,-0.5541077,26.37957,-16.59662,-19.60582,284.5222,284.1785,25,0.0.0.0,10.139.171.151,1,0
2013-11-12 15:20:50.151,82,8.2,52.17026,4.457689,0,0.8214371,280.1143,10.32417,10,1384265735,-0.03462219,-0.8653717,-0.626297,24.61707,-18.35162,-19.0316,283.023,282.6793,25,0.0.0.0,10.139.171.151,1,0
2013-11-12 15:20:50.372,83,8.3,52.17026,4.457689,0,0.8214371,280.1143,10.32417,10,1384265735,-0.1620789,-0.8171539,-0.6522369,24.34168,-18.62584,-18.74449,281.6766,281.3329,25,0.0.0.0,10.139.171.151,1,0
2013-11-12 15:20:50.669,84,8.400001,52.17026,4.457689,0,0.8214371,280.1143,10.32417,10,1384265735,-0.1548309,-0.760498,-0.6377563,24.72723,-17.91287,-20.06519,283.2996,282.9558,25,0.0.0.0,10.139.171.151,1,0
2013-11-12 15:20:50.852,85,8.5,52.17026,4.457689,0,0.8214371,280.1143,10.32417,10,1384265735,-0.09577942,-0.8486938,-0.6450806,23.90106,-16.65146,-23.45308,289.0605,288.7168,25,0.0.0.0,10.139.171.151,1,0
2013-11-12 15:20:51.169,86,8.6,52.17026,4.457689,0,0.8214371,280.1143,10.32417,10,1384265735,-0.1442871,-0.8953857,-0.6178894,22.63426,-17.91287,-24.08472,289.8542,289.5105,25,0.0.0.0,10.139.171.151,1,0
2013-11-12 15:20:51.383,87,8.7,52.17026,4.457689,0,0.8214371,280.1143,10.32417,10,1384265735,-0.1387787,-0.8885193,-0.6052399,22.19363,-17.80318,-22.59175,288.0145,287.6708,25,0.0.0.0,10.139.171.151,1,0
2013-11-12 15:20:51.566,88,8.8,52.17026,4.457689,0,0.8214371,280.1143,10.32417,10,1384265735,-0.02209473,-0.718399,-0.5516663,23.2952,-18.68069,-21.32848,284.0107,283.667,25,0.0.0.0,10.139.171.151,1,0
2013-11-12 15:20:51.766,89,8.900001,52.17026,4.457689,0,0.8214371,280.1143,10.32417,10,1384265735,-0.02386475,-0.7989197,-0.5991821,23.95613,-18.35162,-23.05113,285.153,284.8092,25,0.0.0.0,10.139.171.151,1,0
2013-11-12 15:20:52.077,90,9,52.17027,4.457638,0,1.090036,284.1981,10.38662,10,1384265736,-0.06843567,-0.8356628,-0.6557159,23.7909,-19.06459,-22.30464,285.0638,284.72,25,0.0.0.0,10.139.171.151,1,0
2013-11-12 15:20:52.343,91,9.1,52.17027,4.457638,0,1.090036,284.1981,10.38662,10,1384265736,-0.1531677,-0.7161865,-0.5960083,21.64285,-18.90006,-22.24722,284.6991,284.3554,25,0.0.0.0,10.139.171.151,1,0
2013-11-12 15:20:52.542,92,9.2,52.17027,4.457638,0,1.090036,284.1981,10.38662,10,1384265736,-0.1340942,-0.8324432,-0.6608734,22.30379,-21.09381,-22.59175,281.669,281.3253,25,0.0.0.0,10.139.171.151,1,0
2013-11-12 15:20:52.803,93,9.3,52.17027,4.457638,0,1.090036,284.1981,10.38662,10,1384265736,-0.1260986,-0.777359,-0.6025543,22.79949,-19.72272,-23.91246,278.0406,277.6968,25,0.0.0.0,10.139.171.151,1,0
2013-11-12 15:20:53.155,94,9.400001,52.17027,4.457638,0,1.090036,284.1981,10.38662,10,1384265736,-0.1527252,-0.8665009,-0.5771027,22.68934,-19.28397,-22.87886,277.9319,277.5881,25,0.0.0.0,10.139.171.151,1,0
2013-11-12 15:20:53.348,95,9.5,52.17027,4.457638,0,1.090036,284.1981,10.38662,10,1384265736,-0.1373596,-0.831604,-0.574234,22.5241,-19.99693,-21.673,270.4232,270.0795,25,0.0.0.0,10.139.171.151,1,0
2013-11-12 15:20:53.464,96,9.6,52.17027,4.457638,0,1.090036,284.1981,10.38662,10,1384265736,-0.2007599,-0.8104706,-0.5384979,21.69793,-20.92928,-21.73042,270.368,270.0243,25,0.0.0.0,10.139.171.151,1,0
2013-11-12 15:20:53.584,97,9.7,52.17027,4.457587,0,1.304945,283.6425,10.41252,10,1384265737,-0.1784821,-0.7014771,-0.5387115,22.85457,-21.2035,-21.44331,270.0916,269.7479,25,0.0.0.0,10.139.171.151,1,0
2013-11-12 15:20:53.736,98,9.8,52.17027,4.457587,0,1.304945,283.6425,10.41252,10,1384265737,-0.1691895,-0.8161163,-0.5519867,22.68934,-21.25834,-21.38589,267.1052,266.7614,25,0.0.0.0,10.139.171.151,1,0
2013-11-12 15:20:54.000,99,9.900001,52.17027,4.457587,0,1.304945,283.6425,10.41252,10,1384265737,-0.2645721,-0.8931427,-0.5258789,21.69793,-20.49053,-22.41949,266.1721,265.8284,25,0.0.0.0,10.139.171.151,1,0
2013-11-12 15:20:54.146,100,10,52.17027,4.457587,0,1.304945,283.6425,10.41252,10,1384265737,-0.2785645,-0.8644562,-0.518219,22.68934,-20.7099,-21.04137,266.2877,265.944,25,0.0.0.0,10.139.171.151,1,0
2013-11-12 15:20:54.306,101,10.1,52.17027,4.457587,0,1.304945,283.6425,10.41252,10,1384265737,-0.2075653,-0.8492889,-0.519928,22.0284,-20.60022,-21.50074,268.1314,267.7877,25,0.0.0.0,10.139.171.151,1,0
2013-11-12 15:20:54.461,102,10.2,52.17027,4.457587,0,1.304945,283.6425,10.41252,10,1384265737,-0.2186737,-0.8291016,-0.4762268,22.41395,-20.87443,-19.95035,266.0879,265.7442,25,0.0.0.0,10.139.171.151,1,0
2013-11-12 15:20:54.613,103,10.3,52.17027,4.457587,0,1.304945,283.6425,10.41252,10,1384265737,-0.2631226,-0.8390656,-0.4851227,21.97332,-20.98412,-21.21363,267.7423,267.3986,25,0.0.0.0,10.139.171.151,1,0
2013-11-12 15:20:54.749,104,10.4,52.17027,4.457587,0,1.304945,283.6425,10.41252,10,1384265737,-0.2186584,-0.8179016,-0.534668,22.24871,-20.38084,-19.08902,266.7639,266.4201,25,0.0.0.0,10.139.171.151,1,0
2013-11-12 15:20:54.862,105,10.5,52.17027,4.457587,0,1.304945,283.6425,10.41252,10,1384265737,-0.233963,-0.6559143,-0.4854736,23.73582,-19.4485,-16.39019,264.1391,263.7953,25,0.0.0.0,10.139.171.151,1,0
2013-11-12 15:20:55.106,106,10.6,52.17027,4.45755,0,1.308999,276.6208,10.36039,10,1384265738,-0.2078552,-0.9047241,-0.6015778,25.11277,-14.78678,-15.41402,268.5876,268.2439,25,0.0.0.0,10.139.171.151,1,0
2013-11-12 15:20:55.241,107,10.7,52.17027,4.45755,0,1.308999,276.6208,10.36039,10,1384265738,-0.3732147,-0.8411102,-0.5225525,24.2866,-16.26756,-15.70113,270.4172,270.0735,25,0.0.0.0,10.139.171.151,1,0
2013-11-12 15:20:55.365,108,10.8,52.17027,4.45755,0,1.308999,276.6208,10.36039,10,1384265738,-0.2408295,-0.8122711,-0.4997253,24.34168,-18.18709,-15.75855,269.6389,269.2951,25,0.0.0.0,10.139.171.151,1,0
2013-11-12 15:20:55.451,109,10.9,52.17027,4.45755,0,1.308999,276.6208,10.36039,10,1384265738,-0.2615814,-0.9747009,-0.5694733,24.39676,-20.98412,-18.68707,269.7396,269.3959,25,0.0.0.0,10.139.171.151,1,0
2013-11-12 15:20:55.587,110,11,52.17027,4.45755,0,1.308999,276.6208,10.36039,10,1384265738,-0.2689972,-0.9852142,-0.5597382,25.22293,-22.24553,-19.20387,270.8934,270.5497,25,0.0.0.0,10.139.171.151,1,0
2013-11-12 15:20:55.731,111,11.1,52.17027,4.45755,0,1.308999,276.6208,10.36039,10,1384265738,-0.08772278,-0.8647003,-0.4512634,26.21434,-23.23272,-16.90699,267.7102,267.3665,25,0.0.0.0,10.139.171.151,1,0
2013-11-12 15:20:55.998,112,11.2,52.17027,4.45755,0,1.308999,276.6208,10.36039,10,1384265738,-0.1693726,-0.788681,-0.4342804,27.64637,-25.86521,-18.62965,269.2935,268.9497,25,0.0.0.0,10.139.171.151,1,0
2013-11-12 15:20:56.146,113,11.3,52.17027,4.45755,0,1.308999,276.6208,10.36039,10,1384265738,-0.2242889,-0.8590698,-0.5618439,25.82879,-23.61662,-19.0316,273.5576,273.2139,25,0.0.0.0,10.139.171.151,1,0
2013-11-12 15:20:56.283,114,11.4,52.17027,4.45755,0,1.308999,276.6208,10.36039,10,1384265738,-0.2060699,-0.8242493,-0.5589447,26.15926,-23.61662,-21.32848,274.1208,273.777,25,0.0.0.0,10.139.171.151,1,0
2013-11-12 15:20:56.464,115,11.5,52.17027,4.457524,0,1.322807,286.1076,10.38708,10,1384265739,-0.09284973,-0.8647766,-0.5778503,24.17645,-22.41006,-22.7066,281.2764,280.9326,25,0.0.0.0,10.139.171.151,1,0
2013-11-12 15:20:56.633,116,11.6,52.17027,4.457524,0,1.322807,286.1076,10.38708,10,1384265739,-0.1239319,-0.8031311,-0.5314026,23.24012,-19.28396,-22.64918,283.1809,282.8372,25,0.0.0.0,10.139.171.151,1,0
2013-11-12 15:20:56.840,117,11.7,52.17027,4.457524,0,1.322807,286.1076,10.38708,10,1384265739,-0.1122589,-0.9337006,-0.5690002,21.20223,-13.96412,-21.44331,286.75,286.4063,25,0.0.0.0,10.139.171.151,1,0
2013-11-12 15:20:57.082,118,11.8,52.17027,4.457524,0,1.322807,286.1076,10.38708,10,1384265739,-0.1095734,-0.8325195,-0.6140442,24.12137,-7.218336,-17.48121,285.8627,285.519,25,0.0.0.0,10.139.171.151,1,0
2013-11-12 15:20:57.259,119,11.9,52.17027,4.457524,0,1.322807,286.1076,10.38708,10,1384265739,0.009399414,-0.5977783,-0.5479736,24.06629,-6.285994,-14.89722,283.3753,283.0316,25,0.0.0.0,10.139.171.151,1,0
2013-11-12 15:20:57.475,120,12,52.17027,4.457524,0,1.322807,286.1076,10.38708,10,1384265739,-0.2653198,-0.9047699,-0.5161285,25.16785,-5.956934,-12.94488,280.5723,280.2286,25,0.0.0.0,10.139.171.151,1,0
2013-11-12 15:20:58.029,121,12.1,52.17027,4.457524,0,1.322807,286.1076,10.38708,10,1384265739,-0.1381531,-0.8673553,-0.6403198,24.78231,-6.011778,-11.62418,278.6301,278.2864,25,0.0.0.0,10.139.171.151,1,0
2013-11-12 15:20:58.317,122,12.2,52.17027,4.457524,0,1.322807,286.1076,10.38708,10,1384265739,-0.1261902,-0.9051056,-0.5730133,20.92684,-22.13584,-20.92652,278.141,277.7973,25,0.0.0.0,10.139.171.151,1,0
2013-11-12 15:20:58.487,123,12.3,52.17028,4.457497,0,1.470471,297.7595,10.35083,10,1384265740,-0.217514,-0.8025055,-0.4499817,23.62567,-23.28756,-20.29488,275.668,275.3243,25,0.0.0.0,10.139.171.151,1,0
2013-11-12 15:20:58.655,124,12.4,52.17028,4.457497,0,1.470471,297.7595,10.35083,10,1384265740,-0.09346008,-0.9308319,-0.5348358,26.21434,-25.75553,-16.44762,269.4333,269.0896,25,0.0.0.0,10.139.171.151,1,0
2013-11-12 15:20:58.772,125,12.5,52.17028,4.457497,0,1.470471,297.7595,10.35083,10,1384265740,-0.09686279,-0.8363495,-0.467926,27.48113,-24.93286,-15.58629,269.4511,269.1074,25,0.0.0.0,10.139.171.151,1,0
2013-11-12 15:20:58.995,126,12.6,52.17028,4.457497,0,1.470471,297.7595,10.35083,10,1384265740,-0.1881256,-0.8999634,-0.5732727,25.44324,-12.59302,-12.31324,274.4326,274.0889,25,0.0.0.0,10.139.171.151,1,0
2013-11-12 15:20:59.211,127,12.7,52.17028,4.457497,0,1.470471,297.7595,10.35083,10,1384265740,-0.1793518,-0.8183594,-0.6065521,26.43465,-6.340834,-11.39449,278.7967,278.4529,25,0.0.0.0,10.139.171.151,1,0
2013-11-12 15:20:59.325,128,12.8,52.17028,4.457497,0,1.470471,297.7595,10.35083,10,1384265740,-0.2485504,-0.9472961,-0.6434937,21.47762,-22.79396,-19.66324,276.5237,276.18,25,0.0.0.0,10.139.171.151,1,0
2013-11-12 15:20:59.432,129,12.9,52.17028,4.457445,0,1.700353,282.6275,10.35127,10,1384265741,-0.2010803,-0.7939301,-0.5473022,22.74442,-23.94568,-18.57222,272.4176,272.0739,25,0.0.0.0,10.139.171.151,1,0
2013-11-12 15:20:59.613,130,13,52.17028,4.457445,0,1.700353,282.6275,10.35127,10,1384265741,-0.1522064,-1.018875,-0.5669861,24.83738,-25.70067,-15.70113,267.4144,267.0707,25,0.0.0.0,10.139.171.151,1,0
2013-11-12 15:20:59.727,131,13.1,52.17028,4.457445,0,1.700353,282.6275,10.35127,10,1384265741,-0.131958,-0.7891235,-0.5100403,25.44324,-22.02614,-16.90699,272.5534,272.2097,25,0.0.0.0,10.139.171.151,1,0
2013-11-12 15:20:59.859,132,13.2,52.17028,4.457445,0,1.700353,282.6275,10.35127,10,1384265741,-0.09906006,-0.7348175,-0.485733,24.2866,-19.3388,-16.04566,274.4825,274.1388,25,0.0.0.0,10.139.171.151,1,0
2013-11-12 15:21:00.198,133,13.3,52.17028,4.457445,0,1.700353,282.6275,10.35127,10,1384265741,-0.1640778,-0.8029175,-0.4848328,26.48973,-16.92568,-14.09332,275.2697,274.9259,25,0.0.0.0,10.139.171.151,1,0
2013-11-12 15:21:00.374,134,13.4,52.17028,4.457445,0,1.700353,282.6275,10.35127,10,1384265741,-0.1670532,-0.7960815,-0.4936218,27.3159,-8.534582,-10.82027,276.3174,275.9737,25,0.0.0.0,10.139.171.151,1,0
2013-11-12 15:21:00.489,135,13.5,52.17028,4.457445,0,1.700353,282.6275,10.35127,10,1384265741,-0.145874,-0.8128662,-0.4672241,26.43465,-11.82521,-12.08355,274.8624,274.5186,25,0.0.0.0,10.139.171.151,1,0
2013-11-12 15:21:00.630,136,13.6,52.17028,4.457445,0,1.700353,282.6275,10.35127,10,1384265741,-0.1960144,-0.8357544,-0.6221466,25.66356,-13.58021,-14.72496,276.7103,276.3666,25,0.0.0.0,10.139.171.151,1,0
2013-11-12 15:21:00.808,137,13.7,52.17028,4.457445,0,1.700353,282.6275,10.35127,10,1384265741,-0.1484833,-0.8291016,-0.6482697,25.5534,-15.66427,-15.64371,275.2373,274.8936,25,0.0.0.0,10.139.171.151,1,0
2013-11-12 15:21:00.997,138,13.8,52.17029,4.457383,0,1.958316,282.7557,9.820868,10,1384265742,-0.1895599,-0.8223724,-0.6416321,24.17645,-20.2163,-19.72066,274.6522,274.3085,25,0.0.0.0,10.139.171.151,1,0
2013-11-12 15:21:01.151,139,13.9,52.17029,4.457383,0,1.958316,282.7557,9.820868,10,1384265742,-0.1814728,-0.7805481,-0.5355835,23.40535,-22.95849,-23.62535,275.1057,274.7619,25,0.0.0.0,10.139.171.151,1,0
2013-11-12 15:21:01.520,140,14,52.17029,4.457383,0,1.958316,282.7557,9.820868,10,1384265742,-0.07933044,-0.7505493,-0.5605621,20.87176,-20.87443,-25.34801,279.8244,279.4807,25,0.0.0.0,10.139.171.151,1,0
2013-11-12 15:21:01.763,141,14.1,52.17029,4.457383,0,1.958316,282.7557,9.820868,10,1384265742,-0.03582764,-0.903183,-0.5931091,20.92684,-21.47771,-25.52027,276.4239,276.0802,25,0.0.0.0,10.139.171.151,1,0
2013-11-12 15:21:02.068,142,14.2,52.17029,4.457383,0,1.958316,282.7557,9.820868,10,1384265742,-0.1317749,-0.7922821,-0.5363464,21.03699,-22.68426,-22.41949,268.5618,268.2181,25,0.0.0.0,10.139.171.151,1,0
2013-11-12 15:21:02.233,143,14.3,52.1703,4.457314,0,2.124541,285.5949,9.853796,10,1384265743,-0.01161194,-0.9128723,-0.6397247,20.92684,-23.45208,-22.1898,266.8952,266.5515,25,0.0.0.0,10.139.171.151,1,0
2013-11-12 15:21:02.386,144,14.4,52.1703,4.457314,0,2.124541,285.5949,9.853796,10,1384265743,-0.1565399,-0.8253784,-0.5752869,21.09207,-23.83598,-21.21363,264.8002,264.4565,25,0.0.0.0,10.139.171.151,1,0
2013-11-12 15:21:02.579,145,14.5,52.1703,4.457314,0,2.124541,285.5949,9.853796,10,1384265743,-0.2303009,-0.8340454,-0.6174164,23.07488,-22.30034,-19.60582,263.1761,262.8324,25,0.0.0.0,10.139.171.151,1,0
2013-11-12 15:21:02.740,146,14.6,52.1703,4.457314,0,2.124541,285.5949,9.853796,10,1384265743,-0.17099,-0.7032623,-0.5045929,23.12996,-21.36799,-17.94058,264.5407,264.197,25,0.0.0.0,10.139.171.151,1,0
2013-11-12 15:21:02.834,147,14.7,52.1703,4.457314,0,2.124541,285.5949,9.853796,10,1384265743,-0.005325317,-0.9738617,-0.6716614,24.23153,-19.06456,-16.44762,265.8547,265.511,25,0.0.0.0,10.139.171.151,1,0
2013-11-12 15:21:03.092,148,14.8,52.1703,4.457314,0,2.124541,285.5949,9.853796,10,1384265743,-0.1100464,-0.7391205,-0.5548859,24.39676,-20.8744,-17.30894,267.7975,267.4538,25,0.0.0.0,10.139.171.151,1,0
2013-11-12 15:21:03.280,149,14.9,52.1703,4.457314,0,2.124541,285.5949,9.853796,10,1384265743,-0.08149719,-0.7462921,-0.5255585,25.33309,-26.30393,-18.97417,268.1356,267.7919,25,0.0.0.0,10.139.171.151,1,0
2013-11-12 15:21:03.445,150,15,52.1703,4.457271,0,2.061193,280.7916,9.849582,10,1384265744,-0.08680725,-0.8011169,-0.5497437,24.72723,-25.70065,-19.49097,270.2392,269.8954,25,0.0.0.0,10.139.171.151,1,0
2013-11-12 15:21:03.561,151,15.1,52.1703,4.457271,0,2.061193,280.7916,9.849582,10,1384265744,-0.117981,-0.8831329,-0.6100464,23.46043,-25.31674,-19.66324,270.5558,270.2121,25,0.0.0.0,10.139.171.151,1,0
2013-11-12 15:21:03.691,152,15.2,52.1703,4.457271,0,2.061193,280.7916,9.849582,10,1384265744,-0.1439514,-0.6858826,-0.4694824,24.06629,-24.49408,-21.90269,275.7163,275.3726,25,0.0.0.0,10.139.171.151,1,0
2013-11-12 15:21:03.843,153,15.3,52.1703,4.457271,0,2.061193,280.7916,9.849582,10,1384265744,-0.1834259,-1.0681,-0.5669708,22.96473,-23.61659,-22.7066,278.015,277.6713,25,0.0.0.0,10.139.171.151,1,0
2013-11-12 15:21:04.097,154,15.4,52.1703,4.457271,0,2.061193,280.7916,9.849582,10,1384265744,-0.2478027,-0.6545868,-0.5848694,21.47762,-22.90362,-22.30464,277.6251,277.2814,25,0.0.0.0,10.139.171.151,1,0
2013-11-12 15:21:04.260,155,15.5,52.1703,4.457271,0,2.061193,280.7916,9.849582,10,1384265744,-0.04808044,-0.8666992,-0.586441,20.59637,-22.57455,-21.61559,278.1902,277.8464,25,0.0.0.0,10.139.171.151,1,0
2013-11-12 15:21:04.407,156,15.6,52.1703,4.457271,0,2.061193,280.7916,9.849582,10,1384265744,-0.3024597,-0.7553711,-0.6120758,20.59637,-17.96767,-20.46715,280.362,280.0182,25,0.0.0.0,10.139.171.151,1,0
2013-11-12 15:21:04.562,157,15.7,52.1703,4.457271,0,2.061193,280.7916,9.849582,10,1384265744,-0.1701813,-0.6460114,-0.5485382,23.07488,-13.96408,-15.24175,276.6017,276.258,25,0.0.0.0,10.139.171.151,1,0
2013-11-12 15:21:04.683,158,15.8,52.17031,4.457218,0,2.066298,280.0081,9.947907,10,1384265745,-0.1521606,-0.9199066,-0.6441345,24.2866,-11.55096,-12.4855,275.7516,275.4079,25,0.0.0.0,10.139.171.151,1,0
2013-11-12 15:21:04.827,159,15.9,52.17031,4.457218,0,2.066298,280.0081,9.947907,10,1384265745,-0.1867218,-0.835556,-0.5783081,25.93895,-8.918455,-9.499565,273.9547,273.611,25,0.0.0.0,10.139.171.151,1,0
2013-11-12 15:21:05.049,160,16,52.17031,4.457218,0,2.066298,280.0081,9.947907,10,1384265745,-0.1027985,-0.7245483,-0.5471039,27.70145,-8.150648,-9.040192,274.0907,273.747,25,0.0.0.0,10.139.171.151,1,0
2013-11-12 15:21:05.158,161,16.1,52.17031,4.457218,0,2.066298,280.0081,9.947907,10,1384265745,-0.2031097,-0.9477692,-0.5965729,27.64637,-12.15424,-11.1648,274.2307,273.887,25,0.0.0.0,10.139.171.151,1,0
2013-11-12 15:21:05.319,162,16.2,52.17031,4.457218,0,2.066298,280.0081,9.947907,10,1384265745,-0.172348,-0.9573975,-0.6217346,24.23153,-19.61299,-17.71089,276.4461,276.1024,25,0.0.0.0,10.139.171.151,1,0
2013-11-12 15:21:05.584,163,16.3,52.17031,4.457218,0,2.066298,280.0081,9.947907,10,1384265745,-0.2398376,-0.8534851,-0.5151825,23.68074,-24.87799,-17.13667,271.4396,271.0959,25,0.0.0.0,10.139.171.151,1,0
2013-11-12 15:21:05.868,164,16.4,52.17031,4.457218,0,2.066298,280.0081,9.947907,10,1384265745,-0.1843719,-0.8691406,-0.505188,25.33309,-25.20706,-15.98824,270.0251,269.6814,25,0.0.0.0,10.139.171.151,1,0
2013-11-12 15:21:06.168,165,16.5,52.17031,4.457218,0,2.066298,280.0081,9.947907,10,1384265745,-0.147934,-0.8274689,-0.5703888,26.0491,-25.15221,-14.55269,267.5438,267.2,25,0.0.0.0,10.139.171.151,1,0
2013-11-12 15:21:06.337,166,16.6,52.17031,4.457218,0,2.066298,280.0081,9.947907,10,1384265745,-0.1757202,-0.8573303,-0.5869598,25.11277,-20.27112,-15.98824,273.6273,273.2835,25,0.0.0.0,10.139.171.151,1,0
2013-11-12 15:21:06.478,167,16.7,52.17032,4.457153,0,2.186357,284.949,9.95542,10,1384265746,-0.1595612,-0.7455292,-0.50737,25.33309,-16.76112,-12.31324,272.7113,272.3676,25,0.0.0.0,10.139.171.151,1,0
2013-11-12 15:21:06.647,168,16.8,52.17032,4.457153,0,2.186357,284.949,9.95542,10,1384265746,-0.2620697,-0.9149017,-0.5491791,26.76512,-13.58019,-11.27965,274.5493,274.2056,25,0.0.0.0,10.139.171.151,1,0
2013-11-12 15:21:06.782,169,16.9,52.17032,4.457153,0,2.186357,284.949,9.95542,10,1384265746,-0.1241455,-0.7550659,-0.5101013,27.48113,-8.699095,-10.53316,277.6237,277.28,25,0.0.0.0,10.139.171.151,1,0
2013-11-12 15:21:07.026,170,17,52.17032,4.457153,0,2.186357,284.949,9.95542,10,1384265746,-0.1615753,-0.824707,-0.5120392,27.48113,-10.23472,-12.71519,278.8641,278.5204,25,0.0.0.0,10.139.171.151,1,0
2013-11-12 15:21:07.147,171,17.1,52.17032,4.457153,0,2.186357,284.949,9.95542,10,1384265746,-0.1554871,-0.8713226,-0.5761414,25.71863,-19.00972,-14.20816,272.8144,272.4707,25,0.0.0.0,10.139.171.151,1,0
2013-11-12 15:21:07.263,172,17.2,52.17032,4.457153,0,2.186357,284.949,9.95542,10,1384265746,-0.1759186,-0.9111481,-0.4845734,25.71863,-23.72629,-15.12691,268.5542,268.2105,25,0.0.0.0,10.139.171.151,1,0
2013-11-12 15:21:07.391,173,17.3,52.17032,4.457153,0,2.186357,284.949,9.95542,10,1384265746,-0.2232056,-0.8743439,-0.516037,25.44324,-23.45207,-14.0359,267.5866,267.2429,25,0.0.0.0,10.139.171.151,1,0
2013-11-12 15:21:07.519,174,17.4,52.17032,4.457153,0,2.186357,284.949,9.95542,10,1384265746,-0.2384033,-0.7993622,-0.4724884,25.66356,-20.92925,-14.15074,270.285,269.9413,25,0.0.0.0,10.139.171.151,1,0
2013-11-12 15:21:07.668,175,17.5,52.17033,4.457092,0,2.388568,281.8217,9.546229,10,1384265747,-0.1959381,-0.9461212,-0.5050354,25.27801,-19.00973,-15.12691,273.5662,273.2225,25,0.0.0.0,10.139.171.151,1,0
2013-11-12 15:21:07.841,176,17.6,52.17033,4.457092,0,2.388568,281.8217,9.546229,10,1384265747,-0.1222534,-0.8018188,-0.4885712,25.93895,-16.70628,-18.22769,279.0886,278.7448,25,0.0.0.0,10.139.171.151,1,0
2013-11-12 15:21:08.237,177,17.7,52.17033,4.457092,0,2.388568,281.8217,9.546229,10,1384265747,-0.1446228,-0.7396851,-0.4761658,23.01981,-18.62582,-18.28511,278.0601,277.7164,25,0.0.0.0,10.139.171.151,1,0
2013-11-12 15:21:08.524,178,17.8,52.17033,4.457092,0,2.388568,281.8217,9.546229,10,1384265747,-0.1837769,-0.8245697,-0.4391022,23.46043,-19.39363,-18.39996,276.6472,276.3035,25,0.0.0.0,10.139.171.151,1,0
2013-11-12 15:21:08.750,179,17.9,52.17033,4.457092,0,2.388568,281.8217,9.546229,10,1384265747,-0.1125183,-0.7146149,-0.5500793,22.5241,-20.9841,-17.65347,273.1398,272.7961,25,0.0.0.0,10.139.171.151,1,0
2013-11-12 15:21:09.017,180,18,52.17033,4.457092,0,2.388568,281.8217,9.546229,10,1384265747,-0.08879089,-0.8223572,-0.6344147,22.79949,-19.50331,-18.85933,274.1504,273.8067,25,0.0.0.0,10.139.171.151,1,0
2013-11-12 15:21:09.245,181,18.1,52.17033,4.457092,0,2.388568,281.8217,9.546229,10,1384265747,-0.330658,-0.6854553,-0.6143036,21.75301,-19.99691,-20.75426,274.1053,273.7616,25,0.0.0.0,10.139.171.151,1,0
2013-11-12 15:21:09.454,182,18.2,52.17033,4.457092,0,2.388568,281.8217,9.546229,10,1384265747,-0.06915283,-0.6520996,-0.5666504,21.86316,-20.65504,-20.52457,272.5334,272.1897,25,0.0.0.0,10.139.171.151,1,0
2013-11-12 15:21:09.618,183,18.3,52.17033,4.457092,0,2.388568,281.8217,9.546229,10,1384265747,0.0861969,-0.7799988,-0.6435699,21.42254,-21.31316,-21.55816,271.5591,271.2154,25,0.0.0.0,10.139.171.151,1,0
2013-11-12 15:21:09.876,184,18.4,52.17033,4.457034,0,2.566168,283.9951,9.650309,10,1384265749,-0.05577087,-0.9103241,-0.5620117,21.47762,-22.2455,-18.62965,265.1226,264.7789,25,0.0.0.0,10.139.171.151,1,0
2013-11-12 15:21:10.279,185,18.5,52.17033,4.457034,0,2.566168,283.9951,9.650309,10,1384265749,-0.1182404,-0.7434082,-0.6152496,21.20223,-22.30035,-16.50504,261.0669,260.7232,25,0.0.0.0,10.139.171.151,1,0
2013-11-12 15:21:10.496,186,18.6,52.17033,4.457034,0,2.566168,283.9951,9.650309,10,1384265749,-0.1088562,-0.7443237,-0.5850525,21.86316,-22.84878,-14.32301,256.6419,256.2982,25,0.0.0.0,10.139.171.151,1,0
2013-11-12 15:21:10.750,187,18.7,52.17033,4.457034,0,2.566168,283.9951,9.650309,10,1384265749,-0.09205627,-0.693573,-0.5559082,20.7616,-23.72629,-15.47144,256.2059,255.8622,25,0.0.0.0,10.139.171.151,1,0
2013-11-12 15:21:11.135,188,18.8,52.17033,4.457034,0,2.566168,283.9951,9.650309,10,1384265749,-0.2330475,-0.9883118,-0.7163391,21.97332,-23.39723,-13.74879,255.8094,255.4657,25,0.0.0.0,10.139.171.151,1,0
2013-11-12 15:21:11.331,189,18.9,52.17033,4.457034,0,2.566168,283.9951,9.650309,10,1384265749,-0.2406311,-0.8518677,-0.5570526,23.62567,-21.97129,-10.87769,253.9224,253.5787,25,0.0.0.0,10.139.171.151,1,0
2013-11-12 15:21:11.469,190,19,52.17033,4.457034,0,2.566168,283.9951,9.650309,10,1384265749,-0.1079712,-0.7937012,-0.5323334,25.71863,-21.8616,-4.331596,246.8915,246.5478,25,0.0.0.0,10.139.171.151,1,0
2013-11-12 15:21:11.572,191,19.1,52.17033,4.457034,0,2.566168,283.9951,9.650309,10,1384265749,-0.1079712,-0.7937012,-0.5323334,26.76512,-21.03895,-1.862457,245.1326,244.7889,25,0.0.0.0,10.139.171.151,1,0
2013-11-12 15:21:11.669,192,19.2,52.17033,4.457007,0,2.484603,274.2089,9.664053,10,1384265749,-0.1591644,-1.079758,-0.6145477,28.25223,-20.65504,0.9512177,243.3033,242.9596,25,0.0.0.0,10.139.171.151,1,0
2013-11-12 15:21:12.093,193,19.3,52.17033,4.457007,0,2.484603,274.2089,9.664053,10,1384265749,-0.1681824,-0.7490234,-0.4801178,29.79441,-20.10661,3.018402,242.8096,242.4659,25,0.0.0.0,10.139.171.151,1,0
2013-11-12 15:21:12.268,194,19.4,52.17033,4.457007,0,2.484603,274.2089,9.664053,10,1384265749,-0.1124725,-0.7558136,-0.5684814,29.62918,-20.81958,1.123482,244.7027,244.359,25,0.0.0.0,10.139.171.151,1,0
2013-11-12 15:21:12.450,195,19.5,52.17033,4.457007,0,2.484603,274.2089,9.664053,10,1384265749,-0.1253204,-0.8330383,-0.70755,29.5741,-20.87442,0.03246307,246.3713,246.0276,25,0.0.0.0,10.139.171.151,1,0
2013-11-12 15:21:12.612,196,19.6,52.17033,4.457007,0,2.484603,274.2089,9.664053,10,1384265749,-0.1141663,-0.6814728,-0.5647736,29.79441,-21.75192,-1.345657,248.2775,247.9338,25,0.0.0.0,10.139.171.151,1,0
2013-11-12 15:21:12.784,197,19.7,52.17033,4.457007,0,2.484603,274.2089,9.664053,10,1384265749,-0.0933075,-0.9497833,-0.686676,29.68426,-25.81035,-4.216751,249.6639,249.3202,25,0.0.0.0,10.139.171.151,1,0
2013-11-12 15:21:13.119,198,19.8,52.17033,4.457007,0,2.484603,274.2089,9.664053,10,1384265749,-0.1034851,-0.7997742,-0.6540222,29.51902,-25.09739,-6.341362,255.4151,255.0714,25,0.0.0.0,10.139.171.151,1,0
2013-11-12 15:21:13.236,199,19.9,52.17033,4.457007,0,2.484603,274.2089,9.664053,10,1384265749,-0.04653931,-0.7203064,-0.6033783,29.35379,-23.7263,-8.580818,257.1991,256.8554,25,0.0.0.0,10.139.171.151,1,0
2013-11-12 15:21:13.384,200,20,52.17033,4.457007,0,2.484603,274.2089,9.664053,10,1384265749,-0.1821594,-0.8632355,-0.6025543,25.60848,-22.51973,-12.4855,261.9204,261.5767,25,0.0.0.0,10.139.171.151,1,0
2013-11-12 15:21:13.520,201,20.1,52.17033,4.456981,0,2.431154,272.5044,9.721234,10,1384265750,-0.1318817,-0.904129,-0.5837555,22.46902,-15.55457,-14.26558,269.4703,269.1266,25,0.0.0.0,10.139.171.151,1,0
2013-11-12 15:21:13.646,202,20.2,52.17033,4.456981,0,2.431154,272.5044,9.721234,10,1384265750,-0.1222076,-0.8560486,-0.6490631,21.86316,-11.77035,-14.55269,273.5049,273.1612,25,0.0.0.0,10.139.171.151,1,0
2013-11-12 15:21:13.803,203,20.3,52.17033,4.456981,0,2.431154,272.5044,9.721234,10,1384265750,-0.1846771,-0.8068695,-0.5365143,23.95613,-8.589418,-14.32301,276.6698,276.3261,25,0.0.0.0,10.139.171.151,1,0
2013-11-12 15:21:14.053,204,20.4,52.17033,4.456981,0,2.431154,272.5044,9.721234,10,1384265750,-0.2641602,-1.033066,-0.762085,24.12137,-4.585821,-13.69136,281.8316,281.4879,25,0.0.0.0,10.139.171.151,1,0
2013-11-12 15:21:14.217,205,20.5,52.17033,4.456981,0,2.431154,272.5044,9.721234,10,1384265750,-0.09373474,-0.5445251,-0.504715,26.43465,-3.598635,-13.80621,281.903,281.5593,25,0.0.0.0,10.139.171.151,1,0
2013-11-12 15:21:14.380,206,20.6,52.17033,4.456981,0,2.431154,272.5044,9.721234,10,1384265750,-0.1044159,-0.9688263,-0.6564941,27.59129,-4.201918,-14.32301,282.4084,282.0647,25,0.0.0.0,10.139.171.151,1,0
2013-11-12 15:21:14.549,207,20.7,52.17033,4.456981,0,2.431154,272.5044,9.721234,10,1384265750,-0.1261292,-0.6707916,-0.4889221,27.53621,-9.302385,-17.82574,283.998,283.6542,25,0.0.0.0,10.139.171.151,1,0
2013-11-12 15:21:14.709,208,20.8,52.17033,4.456981,0,2.431154,272.5044,9.721234,10,1384265750,-0.1952972,-0.831543,-0.5871124,23.2952,-20.2163,-24.42925,285.1813,284.8376,25,0.0.0.0,10.139.171.151,1,0
2013-11-12 15:21:14.825,209,20.9,52.17033,4.456981,0,2.431154,272.5044,9.721234,10,1384265750,-0.2130432,-0.8094788,-0.5628815,22.96473,-23.72629,-25.34801,283.2261,282.8824,25,0.0.0.0,10.139.171.151,1,0
2013-11-12 15:21:15.046,210,21,52.17034,4.456946,0,2.491103,289.7066,9.716488,10,1384265751,-0.26297,-0.8851013,-0.4976654,23.40535,-26.57816,-22.93629,279.1442,278.8005,25,0.0.0.0,10.139.171.151,1,0
2013-11-12 15:21:15.303,211,21.1,52.17034,4.456946,0,2.491103,289.7066,9.716488,10,1384265751,-0.1620636,-0.8050385,-0.5003967,23.51551,-27.0169,-21.09879,275.6152,275.2715,25,0.0.0.0,10.139.171.151,1,0
2013-11-12 15:21:15.572,212,21.2,52.17034,4.456946,0,2.491103,289.7066,9.716488,10,1384265751,-0.1358032,-0.7618713,-0.4254456,22.13856,-20.16144,-18.39996,273.7996,273.4559,25,0.0.0.0,10.139.171.151,1,0
2013-11-12 15:21:15.836,213,21.3,52.17034,4.456946,0,2.491103,289.7066,9.716488,10,1384265751,-0.2207031,-0.9054718,-0.4954834,23.24012,-18.40644,-17.25152,276.2028,275.859,25,0.0.0.0,10.139.171.151,1,0
2013-11-12 15:21:16.102,214,21.4,52.17034,4.456946,0,2.491103,289.7066,9.716488,10,1384265751,-0.2052307,-0.9463501,-0.550827,23.90106,-11.60582,-12.31324,276.2375,275.8938,25,0.0.0.0,10.139.171.151,1,0
2013-11-12 15:21:16.262,215,21.5,52.17034,4.456946,0,2.491103,289.7066,9.716488,10,1384265751,-0.09663391,-0.7966003,-0.5021057,24.83738,-10.12504,-13.17457,278.6534,278.3097,25,0.0.0.0,10.139.171.151,1,0
2013-11-12 15:21:16.403,216,21.6,52.17034,4.456946,0,2.491103,289.7066,9.716488,10,1384265751,-0.1391449,-0.9486389,-0.4424896,23.2952,-15.28035,-15.81597,278.6331,278.2894,25,0.0.0.0,10.139.171.151,1,0
2013-11-12 15:21:16.564,217,21.7,52.17034,4.456946,0,2.491103,289.7066,9.716488,10,1384265751,-0.1303406,-0.8670654,-0.47966,24.39676,-17.80316,-15.81597,275.2796,274.9359,25,0.0.0.0,10.139.171.151,1,0
2013-11-12 15:21:16.687,218,21.8,52.17035,4.456892,0,2.657215,289.7246,9.689685,10,1384265752,-0.1426544,-0.8864746,-0.6023407,24.39676,-18.46129,-16.16051,274.9335,274.5898,25,0.0.0.0,10.139.171.151,1,0
2013-11-12 15:21:16.841,219,21.9,52.17035,4.456892,0,2.657215,289.7246,9.689685,10,1384265752,-0.1045685,-0.8742828,-0.4658966,24.17645,-18.68066,-16.39019,276.0099,275.6662,25,0.0.0.0,10.139.171.151,1,0
2013-11-12 15:21:17.069,220,22,52.17035,4.456892,0,2.657215,289.7246,9.689685,10,1384265752,-0.1299591,-0.8360748,-0.51091,26.37957,-21.31316,-13.86363,268.3219,267.9782,25,0.0.0.0,10.139.171.151,1,0
2013-11-12 15:21:17.174,221,22.1,52.17035,4.456892,0,2.657215,289.7246,9.689685,10,1384265752,-0.06436157,-0.7821045,-0.5594788,25.22293,-22.02612,-14.61012,264.9632,264.6195,25,0.0.0.0,10.139.171.151,1,0
2013-11-12 15:21:17.289,222,22.2,52.17035,4.456892,0,2.657215,289.7246,9.689685,10,1384265752,0.006942749,-0.7507629,-0.5027924,25.60848,-20.87441,-16.84956,266.2088,265.8651,25,0.0.0.0,10.139.171.151,1,0
2013-11-12 15:21:17.501,223,22.3,52.17035,4.456892,0,2.657215,289.7246,9.689685,10,1384265752,-0.1045227,-0.7883911,-0.4787903,24.06629,-19.22909,-19.60582,269.8786,269.5349,25,0.0.0.0,10.139.171.151,1,0
2013-11-12 15:21:17.618,224,22.4,52.17035,4.456892,0,2.657215,289.7246,9.689685,10,1384265752,-0.1358948,-0.8718872,-0.486496,22.19363,-18.90003,-21.44331,274.6468,274.3031,25,0.0.0.0,10.139.171.151,1,0
2013-11-12 15:21:17.818,225,22.5,52.17035,4.456892,0,2.657215,289.7246,9.689685,10,1384265752,-0.1485901,-0.8560181,-0.4885254,21.91824,-19.613,-20.58199,271.6984,271.3547,25,0.0.0.0,10.139.171.151,1,0
2013-11-12 15:21:18.093,226,22.6,52.17035,4.456845,0,2.72955,277.8728,9.724488,10,1384265753,-0.1386871,-0.9335938,-0.616806,19.99051,-18.90003,-21.21363,272.2007,271.857,25,0.0.0.0,10.139.171.151,1,0
2013-11-12 15:21:18.267,227,22.7,52.17035,4.456845,0,2.72955,277.8728,9.724488,10,1384265753,-0.1958923,-0.7575226,-0.6145782,21.47762,-17.09019,-17.02184,271.2982,270.9545,25,0.0.0.0,10.139.171.151,1,0
2013-11-12 15:21:18.548,228,22.8,52.17035,4.456845,0,2.72955,277.8728,9.724488,10,1384265753,-0.1346588,-0.9350281,-0.6576843,24.34168,-16.87081,-15.75855,266.3657,266.022,25,0.0.0.0,10.139.171.151,1,0
2013-11-12 15:21:18.703,229,22.9,52.17035,4.456845,0,2.72955,277.8728,9.724488,10,1384265753,-0.125885,-0.9234619,-0.5476379,22.74442,-16.92566,-15.81597,267.0309,266.6872,25,0.0.0.0,10.139.171.151,1,0
2013-11-12 15:21:18.816,230,23,52.17035,4.456845,0,2.72955,277.8728,9.724488,10,1384265753,-0.1317139,-0.7185974,-0.4946747,23.57059,-18.95487,-16.6773,268.3798,268.0361,25,0.0.0.0,10.139.171.151,1,0
2013-11-12 15:21:19.041,231,23.1,52.17035,4.456845,0,2.72955,277.8728,9.724488,10,1384265753,-0.08795166,-0.7978668,-0.5176544,24.17645,-21.97128,-16.84956,267.8206,267.4769,25,0.0.0.0,10.139.171.151,1,0
2013-11-12 15:21:19.167,232,23.2,52.17035,4.456845,0,2.72955,277.8728,9.724488,10,1384265753,-0.1259003,-0.7067261,-0.5735321,22.96473,-23.94566,-19.14644,271.2341,270.8904,25,0.0.0.0,10.139.171.151,1,0
2013-11-12 15:21:19.270,233,23.3,52.17035,4.456845,0,2.72955,277.8728,9.724488,10,1384265753,-0.06498718,-0.7622223,-0.5234985,22.85457,-23.94565,-18.22769,269.8813,269.5376,25,0.0.0.0,10.139.171.151,1,0
2013-11-12 15:21:19.529,234,23.4,52.17035,4.45682,0,2.574293,297.0419,9.678664,10,1384265754,-0.1247864,-0.9228821,-0.5885468,24.12137,-24.11018,-15.18433,267.3229,266.9792,25,0.0.0.0,10.139.171.151,1,0
2013-11-12 15:21:19.642,235,23.5,52.17035,4.45682,0,2.574293,297.0419,9.678664,10,1384265754,-0.1740723,-0.8110809,-0.5481262,25.27801,-23.61658,-16.27534,267.7133,267.3696,25,0.0.0.0,10.139.171.151,1,0
2013-11-12 15:21:19.793,236,23.6,52.17035,4.45682,0,2.574293,297.0419,9.678664,10,1384265754,-0.2272034,-0.8065643,-0.5970306,25.44324,-24.00049,-16.6773,269.4604,269.1167,25,0.0.0.0,10.139.171.151,1,0
2013-11-12 15:21:20.066,237,23.7,52.17035,4.45682,0,2.574293,297.0419,9.678664,10,1384265754,-0.2138367,-0.7966309,-0.6583557,22.90965,-21.1486,-17.48121,272.5979,272.2542,25,0.0.0.0,10.139.171.151,1,0
2013-11-12 15:21:20.244,238,23.8,52.17035,4.45682,0,2.574293,297.0419,9.678664,10,1384265754,-0.2230072,-0.7906647,-0.5571442,22.85457,-19.11938,-16.73473,272.7087,272.365,25,0.0.0.0,10.139.171.151,1,0
2013-11-12 15:21:20.547,239,23.9,52.17035,4.45682,0,2.574293,297.0419,9.678664,10,1384265754,-0.2236938,-0.7500458,-0.6069031,21.58777,-13.79954,-17.94058,279.2082,278.8645,25,0.0.0.0,10.139.171.151,1,0
2013-11-12 15:21:20.831,240,24,52.17035,4.45682,0,2.574293,297.0419,9.678664,10,1384265754,-0.2306671,-0.7632294,-0.6760406,24.50692,-12.64782,-15.47144,277.2632,276.9195,25,0.0.0.0,10.139.171.151,1,0
2013-11-12 15:21:21.109,241,24.1,52.17035,4.45682,0,2.574293,297.0419,9.678664,10,1384265754,-0.1812134,-0.8202667,-0.6065521,25.38816,-11.9897,-10.18863,276.2301,275.8864,25,0.0.0.0,10.139.171.151,1,0
2013-11-12 15:21:21.240,242,24.2,52.17036,4.456781,0,2.577781,293.9875,9.72011,10,1384265755,-0.063797,-0.7532959,-0.6140594,25.82879,-8.260317,-10.53316,275.8029,275.4592,25,0.0.0.0,10.139.171.151,1,0
2013-11-12 15:21:21.426,243,24.3,52.17036,4.456781,0,2.577781,293.9875,9.72011,10,1384265755,-0.05136108,-0.7471466,-0.6646576,25.0577,-8.260317,-11.33707,277.299,276.9552,25,0.0.0.0,10.139.171.151,1,0
2013-11-12 15:21:21.577,244,24.4,52.17036,4.456781,0,2.577781,293.9875,9.72011,10,1384265755,-0.09138489,-0.7088623,-0.625,23.01981,-16.54173,-15.18433,275.0413,274.6975,25,0.0.0.0,10.139.171.151,1,0
2013-11-12 15:21:22.265,245,24.5,52.17036,4.456781,0,2.577781,293.9875,9.72011,10,1384265755,-0.1531677,-0.6881714,-0.5249939,23.46043,-21.91641,-16.33277,270.7294,270.3857,25,0.0.0.0,10.139.171.151,1,0
2013-11-12 15:21:22.536,246,24.6,52.17036,4.456781,0,2.577781,293.9875,9.72011,10,1384265755,-0.02949524,-0.7850037,-0.4775391,21.20223,-17.36437,-14.09332,270.9685,270.6248,25,0.0.0.0,10.139.171.151,1,0
2013-11-12 15:21:22.773,247,24.7,52.17036,4.456745,0,2.670936,280.6848,9.743447,10,1384265756,-0.06088257,-0.7694397,-0.555603,22.90965,-16.32234,-12.54292,270.9108,270.5671,25,0.0.0.0,10.139.171.151,1,0
2013-11-12 15:21:23.113,248,24.8,52.17036,4.456745,0,2.670936,280.6848,9.743447,10,1384265756,-0.04716492,-0.8694763,-0.5650177,26.21434,-11.82515,-10.47574,272.8542,272.5105,25,0.0.0.0,10.139.171.151,1,0
2013-11-12 15:21:23.293,249,24.9,52.17036,4.456745,0,2.670936,280.6848,9.743447,10,1384265756,-0.18396,-0.7681732,-0.4703979,27.70145,-9.905622,-7.20269,271.0005,270.6568,25,0.0.0.0,10.139.171.151,1,0
2013-11-12 15:21:23.506,250,25,52.17036,4.456745,0,2.670936,280.6848,9.743447,10,1384265756,-0.1171265,-0.8969574,-0.515564,27.04051,-13.96406,-8.580818,269.1301,268.7864,25,0.0.0.0,10.139.171.151,1,0
2013-11-12 15:21:23.729,251,25.1,52.17036,4.456745,0,2.670936,280.6848,9.743447,10,1384265756,-0.1248474,-0.9255981,-0.5651703,26.10418,-21.03891,-11.85387,265.9394,265.5957,25,0.0.0.0,10.139.171.151,1,0
2013-11-12 15:21:24.100,252,25.2,52.17036,4.456745,0,2.670936,280.6848,9.743447,10,1384265756,-0.2424011,-0.7680206,-0.5825958,25.71863,-22.62937,-13.17457,267.1963,266.8526,25,0.0.0.0,10.139.171.151,1,0
2013-11-12 15:21:24.390,253,25.3,52.17036,4.456745,0,2.670936,280.6848,9.743447,10,1384265756,-0.2334442,-0.7082672,-0.5476532,26.8202,-23.17781,-13.40425,268.2053,267.8616,25,0.0.0.0,10.139.171.151,1,0
2013-11-12 15:21:24.710,254,25.4,52.17036,4.456745,0,2.670936,280.6848,9.743447,10,1384265756,-0.2334442,-0.7082672,-0.5476532,27.04051,-20.54531,-12.37066,269.4022,269.0585,25,0.0.0.0,10.139.171.151,1,0
2013-11-12 15:21:25.047,255,25.5,52.17036,4.456745,0,2.670936,280.6848,9.743447,10,1384265756,-0.2073059,-0.8190155,-0.5239105,23.62567,-15.17062,-13.5191,277.8169,277.4732,25,0.0.0.0,10.139.171.151,1,0
2013-11-12 15:21:25.218,256,25.6,52.17037,4.456684,0,2.836329,280.2875,9.204026,10,1384265757,-0.07203674,-0.8499603,-0.6245575,25.27801,-11.44124,-12.4855,280.2303,279.8865,25,0.0.0.0,10.139.171.151,1,0
2013-11-12 15:21:25.442,257,25.7,52.17037,4.456684,0,2.836329,280.2875,9.204026,10,1384265757,-0.1159515,-0.8450928,-0.614975,25.27801,-12.53811,-15.70113,282.478,282.1342,25,0.0.0.0,10.139.171.151,1,0
2013-11-12 15:21:25.628,258,25.8,52.17037,4.456684,0,2.836329,280.2875,9.204026,10,1384265757,-0.1159515,-0.8450928,-0.614975,22.90965,-15.99327,-19.08902,283.5562,283.2125,25,0.0.0.0,10.139.171.151,1,0
2013-11-12 15:21:26.145,259,25.9,52.17037,4.456684,0,2.836329,280.2875,9.204026,10,1384265757,-0.1347961,-0.8525696,-0.6179657,21.69793,-18.62577,-17.02184,276.6843,276.3406,25,0.0.0.0,10.139.171.151,1,0
2013-11-12 15:21:26.329,260,26,52.17037,4.456684,0,2.836329,280.2875,9.204026,10,1384265757,-0.06741333,-0.8946686,-0.586441,21.20223,-17.58374,-18.80191,277.6327,277.2889,25,0.0.0.0,10.139.171.151,1,0
2013-11-12 15:21:26.492,261,26.1,52.17037,4.456684,0,2.836329,280.2875,9.204026,10,1384265757,-0.0337677,-0.8456116,-0.4900513,21.25731,-17.63858,-19.77808,275.8818,275.5381,25,0.0.0.0,10.139.171.151,1,0
2013-11-12 15:21:26.664,262,26.2,52.17038,4.456623,0,2.986544,282.9106,9,10,1384265758,-0.1598206,-0.7646332,-0.5666962,22.46902,-17.41921,-19.89293,275.1139,274.7702,25,0.0.0.0,10.139.171.151,1,0
2013-11-12 15:21:26.797,263,26.3,52.17038,4.456623,0,2.986544,282.9106,9,10,1384265758,-0.04742432,-0.8661194,-0.5202332,23.18504,-18.89999,-20.40972,273.2725,272.9288,25,0.0.0.0,10.139.171.151,1,0
2013-11-12 15:21:27.026,264,26.4,52.17038,4.456623,0,2.986544,282.9106,9,10,1384265758,-0.08950806,-0.8069458,-0.5526733,21.91824,-18.07734,-18.5148,271.6204,271.2767,25,0.0.0.0,10.139.171.151,1,0
2013-11-12 15:21:27.152,265,26.5,52.17038,4.456623,0,2.986544,282.9106,9,10,1384265758,0.0599823,-0.6420746,-0.5787964,22.46902,-18.18703,-18.5148,270.2543,269.9106,25,0.0.0.0,10.139.171.151,1,0
2013-11-12 15:21:27.237,266,26.6,52.17038,4.456623,0,2.986544,282.9106,9,10,1384265758,-0.1757355,-0.8582611,-0.581131,22.85457,-18.02249,-17.65347,269.8298,269.4861,25,0.0.0.0,10.139.171.151,1,0
2013-11-12 15:21:27.376,267,26.7,52.17038,4.456623,0,2.986544,282.9106,9,10,1384265758,-0.1822662,-0.8191223,-0.5890503,23.62567,-18.89999,-16.61988,268.4013,268.0576,25,0.0.0.0,10.139.171.151,1,0
2013-11-12 15:21:27.580,268,26.8,52.17038,4.456623,0,2.986544,282.9106,9,10,1384265758,-0.1248016,-0.914444,-0.6294403,25.5534,-17.5289,-13.46168,265.9005,265.5568,25,0.0.0.0,10.139.171.151,1,0
2013-11-12 15:21:27.783,269,26.9,52.17038,4.456623,0,2.986544,282.9106,9,10,1384265758,-0.1311035,-0.8571167,-0.5711975,26.0491,-16.48686,-12.83003,267.8016,267.4579,25,0.0.0.0,10.139.171.151,1,0
2013-11-12 15:21:28.050,270,27,52.17038,4.456623,0,2.986544,282.9106,9,10,1384265758,-0.1958618,-0.7725525,-0.5493011,25.71863,-17.69343,-14.43785,269.3324,268.9886,25,0.0.0.0,10.139.171.151,1,0
2013-11-12 15:21:28.184,271,27.1,52.17038,4.456592,0,2.892393,283.601,9.029736,10,1384265759,-0.14151,-0.9055786,-0.5487366,24.06629,-16.92561,-16.27534,272.7011,272.3574,25,0.0.0.0,10.139.171.151,1,0
2013-11-12 15:21:28.344,272,27.2,52.17038,4.456592,0,2.892393,283.601,9.029736,10,1384265759,-0.1685944,-0.755661,-0.5638428,24.06629,-17.58374,-16.39019,272.3896,272.0459,25,0.0.0.0,10.139.171.151,1,0
2013-11-12 15:21:28.467,273,27.3,52.17038,4.456592,0,2.892393,283.601,9.029736,10,1384265759,-0.2570648,-0.8015442,-0.5387573,23.35028,-19.61296,-17.02184,270.929,270.5853,25,0.0.0.0,10.139.171.151,1,0
2013-11-12 15:21:28.634,274,27.4,52.17038,4.456592,0,2.892393,283.601,9.029736,10,1384265759,-0.1689606,-0.8314667,-0.5207977,23.73582,-20.65499,-16.50504,268.7548,268.4111,25,0.0.0.0,10.139.171.151,1,0
2013-11-12 15:21:28.785,275,27.5,52.17038,4.456592,0,2.892393,283.601,9.029736,10,1384265759,-0.1820984,-0.7951965,-0.5365295,24.83738,-22.08093,-16.84956,268.8682,268.5245,25,0.0.0.0,10.139.171.151,1,0
2013-11-12 15:21:29.010,276,27.6,52.17038,4.456592,0,2.892393,283.601,9.029736,10,1384265759,-0.1815186,-0.7879486,-0.4898071,24.56199,-24.87796,-15.41402,265.9027,265.559,25,0.0.0.0,10.139.171.151,1,0
2013-11-12 15:21:29.127,277,27.7,52.17038,4.456592,0,2.892393,283.601,9.029736,10,1384265759,-0.1676941,-0.7686768,-0.4907837,24.23153,-22.46483,-18.39996,270.6025,270.2588,25,0.0.0.0,10.139.171.151,1,0
2013-11-12 15:21:29.298,278,27.8,52.17038,4.456592,0,2.892393,283.601,9.029736,10,1384265759,-0.1234283,-0.8666992,-0.5361023,23.24012,-16.65139,-18.5148,275.8259,275.4822,25,0.0.0.0,10.139.171.151,1,0
2013-11-12 15:21:29.422,279,27.9,52.17039,4.456552,0,2.836707,282.7536,9.083971,10,1384265760,-0.1784668,-0.7836914,-0.5540619,24.61707,-12.97686,-16.96441,277.6501,277.3063,25,0.0.0.0,10.139.171.151,1,0
2013-11-12 15:21:29.591,280,28,52.17039,4.456552,0,2.836707,282.7536,9.083971,10,1384265760,-0.183136,-0.8342133,-0.5305939,24.83738,-12.09936,-16.50504,279.1673,278.8236,25,0.0.0.0,10.139.171.151,1,0
2013-11-12 15:21:29.782,281,28.1,52.17039,4.456552,0,2.836707,282.7536,9.083971,10,1384265760,-0.2084808,-0.8437195,-0.5569305,24.94754,-11.11217,-15.70113,280.082,279.7383,25,0.0.0.0,10.139.171.151,1,0
2013-11-12 15:21:30.068,282,28.2,52.17039,4.456552,0,2.836707,282.7536,9.083971,10,1384265760,-0.18573,-0.8851318,-0.5470123,25.0577,-12.42842,-16.27534,278.8168,278.4731,25,0.0.0.0,10.139.171.151,1,0
2013-11-12 15:21:30.653,283,28.3,52.17039,4.456552,0,2.836707,282.7536,9.083971,10,1384265760,-0.1406708,-0.7736816,-0.5519867,24.61707,-15.06092,-13.97847,272.4594,272.1157,25,0.0.0.0,10.139.171.151,1,0
2013-11-12 15:21:30.863,284,28.4,52.17039,4.456552,0,2.836707,282.7536,9.083971,10,1384265760,-0.2185516,-0.8134308,-0.5794525,26.54481,-16.65139,-13.23199,270.4029,270.0592,25,0.0.0.0,10.139.171.151,1,0
2013-11-12 15:21:31.126,285,28.5,52.17039,4.456552,0,2.836707,282.7536,9.083971,10,1384265760,-0.1010284,-0.7112427,-0.5860748,26.26941,-16.59654,-12.71519,269.3588,269.0151,25,0.0.0.0,10.139.171.151,1,0
2013-11-12 15:21:31.263,286,28.6,52.1704,4.456485,0,2.863988,282.5837,9.060978,10,1384265761,-0.2899017,-0.8652954,-0.5279999,24.2866,-14.18342,-14.32301,271.9536,271.6099,25,0.0.0.0,10.139.171.151,1,0
2013-11-12 15:21:31.398,287,28.7,52.1704,4.456485,0,2.863988,282.5837,9.060978,10,1384265761,-0.1652527,-0.7743988,-0.5783844,24.39676,-14.84155,-13.28941,272.3429,271.9991,25,0.0.0.0,10.139.171.151,1,0
2013-11-12 15:21:31.518,288,28.8,52.1704,4.456485,0,2.863988,282.5837,9.060978,10,1384265761,-0.177597,-0.7826691,-0.5453033,25.99402,-14.7867,-13.92105,272.2177,271.8739,25,0.0.0.0,10.139.171.151,1,0
2013-11-12 15:21:31.632,289,28.9,52.1704,4.456485,0,2.863988,282.5837,9.060978,10,1384265761,-0.1779175,-0.8408203,-0.6035767,25.44324,-15.77389,-13.57652,272.0639,271.7202,25,0.0.0.0,10.139.171.151,1,0
2013-11-12 15:21:31.768,290,29,52.1704,4.456485,0,2.863988,282.5837,9.060978,10,1384265761,-0.1950531,-0.8030853,-0.5735626,24.72723,-14.95123,-15.3566,274.6947,274.351,25,0.0.0.0,10.139.171.151,1,0
2013-11-12 15:21:32.062,291,29.1,52.1704,4.456485,0,2.863988,282.5837,9.060978,10,1384265761,-0.1950531,-0.8030853,-0.5735626,23.01981,-16.43201,-17.36636,273.9358,273.5921,25,0.0.0.0,10.139.171.151,1,0
2013-11-12 15:21:32.213,292,29.2,52.1704,4.456485,0,2.863988,282.5837,9.060978,10,1384265761,-0.1763916,-1.02597,-0.6478577,23.07488,-15.82873,-18.22769,274.1941,273.8504,25,0.0.0.0,10.139.171.151,1,0
2013-11-12 15:21:32.352,293,29.3,52.1704,4.456485,0,2.863988,282.5837,9.060978,10,1384265761,-0.1461182,-0.7777863,-0.5860748,23.68074,-16.65139,-18.17027,275.1652,274.8215,25,0.0.0.0,10.139.171.151,1,0
2013-11-12 15:21:32.492,294,29.4,52.17041,4.456429,0,2.865822,279.8445,9.002012,5,1384265762,-0.1381378,-0.8412628,-0.5634918,23.51551,-17.58373,-17.998,272.7113,272.3676,25,0.0.0.0,10.139.171.151,1,0
2013-11-12 15:21:32.740,295,29.5,52.17041,4.456429,0,2.865822,279.8445,9.002012,5,1384265762,0.06674194,-0.746109,-0.5045166,22.0284,-17.63857,-18.62965,273.5063,273.1626,25,0.0.0.0,10.139.171.151,1,0
2013-11-12 15:21:32.838,296,29.6,52.17041,4.456429,0,2.865822,279.8445,9.002012,5,1384265762,-0.05834961,-0.8715973,-0.6069183,23.24012,-17.19983,-18.62965,273.9159,273.5722,25,0.0.0.0,10.139.171.151,3,0
2013-11-12 15:21:33.077,297,29.7,52.17041,4.456429,0,2.865822,279.8445,9.002012,5,1384265762,-0.119278,-0.8618469,-0.6383209,22.08348,-16.59654,-18.80191,273.9637,273.6199,25,0.0.0.0,10.139.171.151,3,0
2013-11-12 15:21:33.245,298,29.8,52.17041,4.456429,0,2.865822,279.8445,9.002012,5,1384265762,-0.1163177,-0.7490845,-0.58992,22.24871,-15.88357,-18.17027,274.0112,273.6675,25,0.0.0.0,10.139.171.151,3,0
2013-11-12 15:21:33.340,299,29.9,52.17041,4.456429,0,2.865822,279.8445,9.002012,5,1384265762,-0.05924988,-0.7595673,-0.5400391,20.15574,-17.09014,-19.54839,274.1624,273.8187,25,0.0.0.0,10.139.171.151,3,0
2013-11-12 15:21:33.439,300,30,52.17041,4.456429,0,2.865822,279.8445,9.002012,5,1384265762,-0.005355835,-0.8506012,-0.6554413,21.47762,-17.30951,-19.54839,274.2656,273.9219,25,0.0.0.0,10.139.171.151,3,0
2013-11-12 15:21:33.540,301,30.1,52.17041,4.456392,0,2.736552,283.4325,9,5,1384265763,-0.2079468,-0.8092651,-0.6368713,23.51551,-17.47404,-19.26128,274.6963,274.3526,25,0.0.0.0,10.139.171.151,3,0
2013-11-12 15:21:33.657,302,30.2,52.17041,4.456392,0,2.736552,283.4325,9,5,1384265763,-0.09126282,-0.7679901,-0.5693359,21.42254,-19.5581,-18.22769,271.299,270.9553,25,0.0.0.0,10.139.171.151,3,0
2013-11-12 15:21:33.796,303,30.3,52.17041,4.456392,0,2.736552,283.4325,9,5,1384265763,-0.05264282,-0.7614746,-0.5205078,19.82528,-20.49046,-18.74449,271.3836,271.0399,25,0.0.0.0,10.139.171.151,3,0
2013-11-12 15:21:34.114,304,30.4,52.17041,4.456392,0,2.736552,283.4325,9,5,1384265763,-0.09733582,-0.8353424,-0.5750122,18.44832,-20.5453,-17.65347,270.1969,269.8531,25,0.0.0.0,10.139.171.151,3,0
2013-11-12 15:21:34.246,305,30.5,52.17041,4.456392,0,2.736552,283.4325,9,5,1384265763,-0.2053375,-0.7304077,-0.5562592,18.0077,-21.42279,-16.73473,266.6523,266.3086,25,0.0.0.0,10.139.171.151,3,0
2013-11-12 15:21:34.414,306,30.6,52.17041,4.456392,0,2.736552,283.4325,9,5,1384265763,-0.1493073,-0.7491302,-0.4498596,18.33817,-23.94561,-12.71519,255.5076,255.1639,25,0.0.0.0,10.139.171.151,3,0
2013-11-12 15:21:34.665,307,30.7,52.17041,4.456392,0,2.736552,283.4325,9,5,1384265763,-0.1693115,-0.8130493,-0.5393524,18.06277,-24.4392,-11.50933,252.1426,251.7989,25,0.0.0.0,10.139.171.151,3,0
2013-11-12 15:21:34.774,308,30.8,52.17041,4.456392,0,2.736552,283.4325,9,5,1384265763,-0.155365,-0.7678986,-0.4839172,19.82528,-25.3167,-8.753082,249.9883,249.6446,25,0.0.0.0,10.139.171.151,3,0
2013-11-12 15:21:35.006,309,30.9,52.17041,4.456365,0,2.610142,274.7209,9,5,1384265764,-0.1861115,-1.03479,-0.5622101,18.77879,-25.59092,-7.20269,244.3674,244.0236,25,0.0.0.0,10.139.171.151,3,0
