time,timestamp,recordtime,lat,long,alt,speed,course,verticalAccuracy,horizontalAccuracy,locTimeStamp,accelerationX,accelerationY,accelerationZ,HeadingX,HeadingY,HeadingZ,TrueHeading,MagneticHeading,HeadingAccuracy,en0,pdp_ip0,DeviceOrientation,Event
2013-11-12 15:15:30.481,1,0.1,52.17007,4.458165,0,1.797554,96.35889,11.0245,10,1384265528,-0.2111206,-0.7777405,-0.7236176,0.8504028,-37.34033,-10.14777,207.1623,206.8186,25,0.0.0.0,10.139.171.151,1,0
2013-11-12 15:15:30.711,2,0.2,52.17007,4.458165,0,1.797554,96.35889,11.0245,10,1384265528,-0.2366943,-0.7690277,-0.7899475,1.456261,-37.06612,-10.89426,210.2842,209.9405,25,0.0.0.0,10.139.171.151,1,0
2013-11-12 15:15:30.870,3,0.3,52.17007,4.458165,0,1.797554,96.35889,11.0245,10,1384265528,-0.2061157,-0.7185364,-0.6507416,-0.2511597,-36.79189,-11.52589,207.4378,207.0941,25,0.0.0.0,10.139.171.151,1,0
2013-11-12 15:15:31.088,4,0.4,52.17007,4.458165,0,1.797554,96.35889,11.0245,10,1384265528,-0.10112,-0.7867279,-0.6111908,0.9054794,-35.4208,-8.367691,205.3956,205.0519,25,0.0.0.0,10.139.171.151,1,0
2013-11-12 15:15:31.215,5,0.5,52.17007,4.458165,0,1.797554,96.35889,11.0245,10,1384265528,-0.1327515,-0.7389374,-0.5832062,1.456261,-34.87236,-6.874725,203.6314,203.2876,25,0.0.0.0,10.139.171.151,1,0
2013-11-12 15:15:31.373,6,0.6,52.17007,4.458165,0,1.797554,96.35889,11.0245,10,1384265528,-0.1516876,-0.8918915,-0.6802368,1.841808,-34.70783,-8.195427,206.6413,206.2976,25,0.0.0.0,10.139.171.151,1,0
2013-11-12 15:15:31.489,7,0.7,52.17007,4.458165,0,1.797554,96.35889,11.0245,10,1384265528,-0.1272888,-0.6676178,-0.4645996,1.786732,-34.76268,-10.32004,210.3459,210.0021,25,0.0.0.0,10.139.171.151,1,0
2013-11-12 15:15:31.619,8,0.8,52.17007,4.458222,0,1.991849,98.80275,10.94258,10,1384265529,-0.1723938,-0.7004547,-0.630188,1.18087,-35.47564,-9.918083,207.5705,207.2268,25,0.0.0.0,10.139.171.151,1,0
2013-11-12 15:15:31.728,9,0.9,52.17007,4.458222,0,1.991849,98.80275,10.94258,10,1384265529,-0.1697235,-0.8888702,-0.4933929,0.6851692,-36.84673,-10.43488,205.9196,205.5759,25,0.0.0.0,10.139.171.151,1,0
2013-11-12 15:15:32.029,10,1,52.17007,4.458222,0,1.991849,98.80275,10.94258,10,1384265529,-0.1420441,-0.7186584,-0.5219727,1.841808,-37.45002,-8.310272,205.4325,205.0888,25,0.0.0.0,10.139.171.151,1,0
2013-11-12 15:15:32.170,11,1.1,52.17007,4.458222,0,1.991849,98.80275,10.94258,10,1384265529,-0.2173767,-0.8381805,-0.7205658,1.456261,-36.07893,-7.908318,205.4111,205.0674,25,0.0.0.0,10.139.171.151,1,0
2013-11-12 15:15:32.319,12,1.2,52.17007,4.458222,0,1.991849,98.80275,10.94258,10,1384265529,-0.2350922,-0.8693848,-0.6455841,1.291027,-35.91439,-8.425117,207.2661,206.9224,25,0.0.0.0,10.139.171.151,1,0
2013-11-12 15:15:32.481,13,1.3,52.17007,4.458222,0,1.991849,98.80275,10.94258,10,1384265529,-0.1621704,-0.7739563,-0.6319122,-0.5816269,-37.77908,-9.918083,204.9697,204.626,25,0.0.0.0,10.139.171.151,1,0
2013-11-12 15:15:32.652,14,1.4,52.17007,4.458222,0,1.991849,98.80275,10.94258,10,1384265529,-0.2092896,-0.8869476,-0.5841064,0.7402458,-37.12096,-7.506363,204.737,204.3932,25,0.0.0.0,10.139.171.151,1,0
2013-11-12 15:15:32.791,15,1.5,52.17007,4.458222,0,1.991849,98.80275,10.94258,10,1384265529,-0.2092896,-0.8869476,-0.5841064,0.4097786,-35.03689,-8.539955,200.5446,200.2009,25,0.0.0.0,10.139.171.151,1,0
2013-11-12 15:15:32.983,16,1.6,52.17007,4.458272,0,2.111566,100.0453,10.8617,10,1384265530,-0.2001953,-0.8601532,-0.6279449,0.8504028,-34.81752,-9.688393,201.0746,200.7309,25,0.0.0.0,10.139.171.151,1,0
2013-11-12 15:15:33.093,17,1.7,52.17007,4.458272,0,2.111566,100.0453,10.8617,10,1384265530,-0.1876678,-0.7411346,-0.6223755,1.676575,-36.07892,-10.09035,201.1012,200.7575,25,0.0.0.0,10.139.171.151,1,0
2013-11-12 15:15:33.214,18,1.8,52.17007,4.458272,0,2.111566,100.0453,10.8617,10,1384265530,-0.1842041,-0.7826233,-0.555069,1.676575,-36.95642,-12.27238,200.1506,199.8069,25,0.0.0.0,10.139.171.151,1,0
2013-11-12 15:15:33.286,19,1.9,52.17007,4.458272,0,2.111566,100.0453,10.8617,10,1384265530,-0.1912231,-0.7742615,-0.5122986,0.5750122,-36.73705,-13.8802,197.8276,197.4839,25,0.0.0.0,10.139.171.151,1,0
2013-11-12 15:15:33.403,20,2,52.17007,4.458272,0,2.111566,100.0453,10.8617,10,1384265530,-0.1376343,-0.7507019,-0.7078094,1.566418,-38.8211,-12.50207,198.5273,198.1835,25,0.0.0.0,10.139.171.151,1,0
2013-11-12 15:15:33.503,21,2.1,52.17007,4.458272,0,2.111566,100.0453,10.8617,10,1384265530,-0.1305389,-0.7741394,-0.6882629,1.346107,-39.36954,-7.219254,196.7935,196.4498,25,0.0.0.0,10.139.171.151,1,0
2013-11-12 15:15:33.587,22,2.2,52.17007,4.458272,0,2.111566,100.0453,10.8617,10,1384265530,-0.1087799,-0.6827698,-0.6971588,2.778137,-38.0533,-6.645035,198.32,197.9763,25,0.0.0.0,10.139.171.151,1,0
2013-11-12 15:15:33.718,23,2.3,52.17007,4.458272,0,2.111566,100.0453,10.8617,10,1384265530,-0.1273956,-0.8457031,-0.8165741,1.18087,-38.21782,-5.668861,194.56,194.2162,25,0.0.0.0,10.139.171.151,1,0
2013-11-12 15:15:33.855,24,2.4,52.17007,4.458272,0,2.111566,100.0453,10.8617,10,1384265530,-0.1174774,-0.7588959,-0.7057648,0.8504028,-37.77908,-6.702461,195.9837,195.64,25,0.0.0.0,10.139.171.151,1,0
2013-11-12 15:15:34.087,25,2.5,52.17006,4.458338,0,2.253945,102.1443,10.77824,10,1384265531,-0.1653442,-0.690094,-0.7655334,-0.7468643,-35.96923,-7.678627,195.4914,195.1477,25,0.0.0.0,10.139.171.151,1,0
2013-11-12 15:15:34.228,26,2.6,52.17006,4.458338,0,2.253945,102.1443,10.77824,10,1384265531,-0.1912994,-0.6013031,-0.7308197,-1.132408,-36.35315,-7.27668,194.1801,193.8364,25,0.0.0.0,10.139.171.151,1,0
2013-11-12 15:15:34.381,27,2.7,52.17006,4.458338,0,2.253945,102.1443,10.77824,10,1384265531,-0.1912994,-0.6013031,-0.7308197,-1.793346,-35.47564,-8.425117,193.8982,193.5545,25,0.0.0.0,10.139.171.151,1,0
2013-11-12 15:15:34.537,28,2.8,52.17006,4.458338,0,2.253945,102.1443,10.77824,10,1384265531,-0.187561,-0.7179718,-0.7655487,-2.344128,-34.37877,-9.803238,195.8609,195.5172,25,0.0.0.0,10.139.171.151,1,0
2013-11-12 15:15:34.690,29,2.9,52.17006,4.458338,0,2.253945,102.1443,10.77824,10,1384265531,-0.1669464,-0.6776123,-0.6867065,-1.95858,-34.21423,-9.401283,196.2581,195.9144,25,0.0.0.0,10.139.171.151,1,0
2013-11-12 15:15:34.793,30,3,52.17006,4.458338,0,2.253945,102.1443,10.77824,10,1384265531,-0.2253571,-0.7971039,-0.8443451,-2.123817,-32.51408,-9.803238,197.9491,197.6053,25,0.0.0.0,10.139.171.151,1,0
2013-11-12 15:15:34.983,31,3.1,52.17006,4.458338,0,2.253945,102.1443,10.77824,10,1384265531,-0.2049713,-0.6591492,-0.7813263,-2.399208,-32.13017,-10.77941,199.3151,198.9714,25,0.0.0.0,10.139.171.151,1,0
2013-11-12 15:15:35.069,32,3.2,52.17006,4.458338,0,2.253945,102.1443,10.77824,10,1384265531,-0.1840973,-0.6547394,-0.7900238,-2.894909,-32.95283,-12.67433,200.7107,200.3669,25,0.0.0.0,10.139.171.151,1,0
2013-11-12 15:15:35.206,33,3.3,52.17006,4.458338,0,2.253945,102.1443,10.77824,10,1384265531,-0.3485718,-0.8718567,-1.60791,-3.060143,-33.00767,-15.02863,204.8063,204.4626,25,0.0.0.0,10.139.171.151,1,0
2013-11-12 15:15:35.284,34,3.4,52.17006,4.458338,0,2.253945,102.1443,10.77824,10,1384265531,-0.2016602,0.02661133,-1.348785,-2.399208,-30.70424,-14.6841,205.9797,205.636,25,0.0.0.0,10.139.171.151,1,0
2013-11-12 15:15:35.402,35,3.5,52.17006,4.458338,0,2.253945,102.1443,10.77824,10,1384265531,-0.2589417,-0.3809662,-1.37616,-3.776161,-30.21064,-16.23449,197.7471,197.4034,25,0.0.0.0,10.139.171.151,1,0
2013-11-12 15:15:35.497,36,3.6,52.17006,4.458393,0,2.357021,96.01675,10.69064,10,1384265532,-0.1764069,-0.3887177,-1.076935,-3.776161,-30.75908,-16.34933,196.8164,196.4727,25,0.0.0.0,10.139.171.151,1,0
2013-11-12 15:15:35.630,37,3.7,52.17006,4.458393,0,2.357021,96.01675,10.69064,10,1384265532,-0.08056641,-0.5622711,-0.3848419,-2.564442,-31.30751,-16.80871,203.6992,203.3555,25,0.0.0.0,10.139.171.151,1,0
2013-11-12 15:15:35.762,38,3.8,52.17006,4.458393,0,2.357021,96.01675,10.69064,10,1384265532,-0.2702332,-0.942627,-0.4985046,-2.784752,-31.52689,-16.46418,206.5156,206.1719,25,0.0.0.0,10.139.171.151,1,0
2013-11-12 15:15:35.986,39,3.9,52.17006,4.458393,0,2.357021,96.01675,10.69064,10,1384265532,-0.2188416,-0.9091339,-0.4633636,-2.509361,-30.70424,-18.24426,216.6986,216.3549,25,0.0.0.0,10.139.171.151,1,0
2013-11-12 15:15:36.100,40,4,52.17006,4.458393,0,2.357021,96.01675,10.69064,10,1384265532,-0.179718,-0.8260803,-0.4867859,-3.335533,-30.5397,-19.45011,219.1994,218.8557,25,0.0.0.0,10.139.171.151,1,0
2013-11-12 15:15:36.453,41,4.1,52.17006,4.458393,0,2.357021,96.01675,10.69064,10,1384265532,-0.1854401,-0.7185059,-0.6009979,-3.941395,-29.82673,-19.39269,214.0205,213.6768,25,0.0.0.0,10.139.171.151,1,0
2013-11-12 15:15:36.652,42,4.2,52.17006,4.458393,0,2.357021,96.01675,10.69064,10,1384265532,-0.180542,-0.6319885,-0.6420898,-4.161705,-28.94923,-19.50754,225.6487,225.305,25,0.0.0.0,10.139.171.151,1,0
2013-11-12 15:15:36.802,43,4.3,52.17006,4.458393,0,2.357021,96.01675,10.69064,10,1384265532,-0.2346344,-0.7282562,-0.8172913,-3.390614,-27.5233,-18.3591,235.3333,234.9895,25,0.0.0.0,10.139.171.151,1,0
2013-11-12 15:15:37.022,44,4.4,52.17006,4.458393,0,2.357021,96.01675,10.69064,10,1384265532,-0.2429352,-0.7902374,-0.7714081,-1.848427,-26.53611,-18.12941,153.3788,153.035,26,0.0.0.0,10.139.171.151,1,0
2013-11-12 15:15:37.136,45,4.5,52.17006,4.458393,0,2.357021,96.01675,10.69064,10,1384265532,-0.1559601,-0.751709,-0.6416779,-2.399208,-26.97486,-18.58878,151.4758,151.132,26,0.0.0.0,10.139.171.151,1,0
2013-11-12 15:15:37.265,46,4.6,52.17006,4.458393,0,2.357021,96.01675,10.69064,10,1384265532,-0.10289,-0.9233551,-0.5942841,-3.390614,-26.42642,-18.24426,150.0898,149.7461,26,0.0.0.0,10.139.171.151,1,0
2013-11-12 15:15:37.370,47,4.7,52.17007,4.45843,0,2.312751,66.13546,10.60622,10,1384265533,-0.1214905,-0.8929443,-0.623642,-2.949989,-25.87798,-18.12941,149.4854,149.1417,26,0.0.0.0,10.139.171.151,1,0
2013-11-12 15:15:37.468,48,4.8,52.17007,4.45843,0,2.312751,66.13546,10.60622,10,1384265533,-0.1835022,-0.6979828,-0.7081146,-2.949989,-25.87798,-20.31144,145.8147,145.471,26,0.0.0.0,10.139.171.151,1,0
2013-11-12 15:15:37.590,49,4.9,52.17007,4.45843,0,2.312751,66.13546,10.60622,10,1384265533,-0.2615662,-0.7411804,-0.6829987,-3.776161,-26.37158,-21.74699,142.1966,141.8529,26,0.0.0.0,10.139.171.151,1,0
2013-11-12 15:15:37.729,50,5,52.17007,4.45843,0,2.312751,66.13546,10.60622,10,1384265533,-0.181366,-0.6424866,-0.6177216,-3.776161,-25.49408,-23.81417,137.9783,137.6345,26,0.0.0.0,10.139.171.151,1,0
2013-11-12 15:15:37.835,51,5.1,52.17007,4.45843,0,2.312751,66.13546,10.60622,10,1384265533,-0.1335144,-0.8709717,-0.5964966,-2.344128,-26.04251,-24.04386,132.8247,132.481,26,0.0.0.0,10.139.171.151,1,0
2013-11-12 15:15:38.079,52,5.2,52.17007,4.45843,0,2.312751,66.13546,10.60622,10,1384265533,-0.2570496,-0.8034363,-0.5328979,-1.683189,-25.82314,-25.65168,125.5497,125.206,26,0.0.0.0,10.139.171.151,1,0
2013-11-12 15:15:38.222,53,5.3,52.17007,4.45843,0,2.312751,66.13546,10.60622,10,1384265533,-0.1718445,-0.7921906,-0.5063019,-0.9671745,-24.56173,-25.93879,123.1489,122.8052,26,0.0.0.0,10.139.171.151,1,0
2013-11-12 15:15:38.335,54,5.4,52.17007,4.45843,0,2.312751,66.13546,10.60622,10,1384265533,-0.2213593,-1.033966,-0.5496826,-2.399208,-24.67142,-27.89114,120.4747,120.1309,26,0.0.0.0,10.139.171.151,1,0
2013-11-12 15:15:38.474,55,5.5,52.17007,4.45843,0,2.312751,66.13546,10.60622,10,1384265533,-0.3852081,-0.7575836,-0.3894348,-0.9120979,-24.28752,-29.9009,114.3655,114.0218,26,0.0.0.0,10.139.171.151,1,0
2013-11-12 15:15:38.596,56,5.6,52.17007,4.45843,0,2.312751,66.13546,10.60622,10,1384265533,-0.2983704,-0.854187,-0.3976135,-0.7468643,-24.34236,-31.56612,112.6997,112.3559,26,0.0.0.0,10.139.171.151,1,0
2013-11-12 15:15:38.701,57,5.7,52.17007,4.45843,0,2.312751,66.13546,10.60622,10,1384265533,0.03475952,-1.308533,-0.5216827,-0.4163933,-22.80673,-32.71456,110.1024,109.7587,26,0.0.0.0,10.139.171.151,1,0
2013-11-12 15:15:38.819,58,5.8,52.17008,4.458453,0,2.272907,85.0994,10.60411,10,1384265534,-0.7351532,-0.8247528,-0.2640686,-0.4714737,-22.75189,-32.65714,109.36,109.0163,26,0.0.0.0,10.139.171.151,1,0
2013-11-12 15:15:39.030,59,5.9,52.17008,4.458453,0,2.272907,85.0994,10.60411,10,1384265534,-0.1724701,-0.9749603,-0.5087585,-1.022255,-23.84876,-32.65714,105.1094,104.7657,26,0.0.0.0,10.139.171.151,1,0
2013-11-12 15:15:39.185,60,6,52.17008,4.458453,0,2.272907,85.0994,10.60411,10,1384265534,-0.07417297,-0.7654114,-0.5731812,-0.08592606,-22.2583,-32.59972,102.7089,102.3652,26,0.0.0.0,10.139.171.151,1,0
2013-11-12 15:15:39.315,61,6.1,52.17008,4.458453,0,2.272907,85.0994,10.60411,10,1384265534,-0.2014771,-0.7847443,-0.5054779,-0.03084564,-19.90001,-32.5423,100.4265,100.0828,26,0.0.0.0,10.139.171.151,1,0
2013-11-12 15:15:39.408,62,6.2,52.17008,4.458453,0,2.272907,85.0994,10.60411,10,1384265534,-0.2917023,-0.7832489,-0.5379639,0.7402458,-20.22908,-33.00167,97.47539,97.13167,26,0.0.0.0,10.139.171.151,1,0
2013-11-12 15:15:39.502,63,6.3,52.17008,4.458453,0,2.272907,85.0994,10.60411,10,1384265534,-0.3617859,-0.9206543,-0.7588654,1.125793,-19.51611,-30.76223,95.64455,95.30083,26,0.0.0.0,10.139.171.151,1,0
2013-11-12 15:15:39.622,64,6.4,52.17008,4.458453,0,2.272907,85.0994,10.60411,10,1384265534,-0.3617859,-0.9206543,-0.7588654,2.943371,-19.24189,-31.85323,90.37424,90.03052,26,0.0.0.0,10.139.171.151,1,0
2013-11-12 15:15:39.731,65,6.5,52.17008,4.458453,0,2.272907,85.0994,10.60411,10,1384265534,-0.55513,-0.6830292,-0.4058685,3.549231,-19.18705,-30.30285,87.16943,86.82571,26,0.0.0.0,10.139.171.151,1,0
2013-11-12 15:15:40.017,66,6.6,52.17008,4.458453,0,2.272907,85.0994,10.60411,10,1384265534,-0.3959503,-0.7895355,-0.3786926,4.265247,-20.22908,-30.47512,80.2132,79.86948,26,0.0.0.0,10.139.171.151,1,0
2013-11-12 15:15:40.177,67,6.7,52.1701,4.458468,0,2.187554,359.1495,10.55043,10,1384265535,-0.2845917,-0.8413086,-0.3479309,4.044933,-19.46127,-30.93449,77.87781,77.53409,26,0.0.0.0,10.139.171.151,1,0
2013-11-12 15:15:40.320,68,6.8,52.1701,4.458468,0,2.187554,359.1495,10.55043,10,1384265535,-0.2588348,-0.8195953,-0.2680511,5.476965,-19.68064,-32.42745,73.2092,72.86548,26,0.0.0.0,10.139.171.151,1,0
2013-11-12 15:15:40.423,69,6.9,52.1701,4.458468,0,2.187554,359.1495,10.55043,10,1384265535,-0.4026947,-0.9498444,-0.3987579,7.129309,-20.66783,-31.7384,68.88066,68.53694,26,0.0.0.0,10.139.171.151,1,0
2013-11-12 15:15:40.570,70,7,52.1701,4.458468,0,2.187554,359.1495,10.55043,10,1384265535,-0.4428558,-0.8963623,-0.4078064,8.065638,-23.24548,-30.18801,60.86691,60.52319,26,0.0.0.0,10.139.171.151,1,0
2013-11-12 15:15:40.688,71,7.1,52.1701,4.458468,0,2.187554,359.1495,10.55043,10,1384265535,-0.4048767,-0.8577271,-0.374649,8.175793,-23.35517,-29.26925,57.00966,56.66595,26,0.0.0.0,10.139.171.151,1,0
2013-11-12 15:15:40.794,72,7.2,52.1701,4.458468,0,2.187554,359.1495,10.55043,10,1384265535,-0.4042816,-0.8000793,-0.3747864,7.790247,-22.6422,-28.8673,54.82499,54.48127,26,0.0.0.0,10.139.171.151,1,0
2013-11-12 15:15:41.002,73,7.3,52.1701,4.458468,0,2.187554,359.1495,10.55043,10,1384265535,-0.3824921,-0.8348846,-0.3960419,9.1672,-24.8908,-26.62785,49.15577,48.81205,26,0.0.0.0,10.139.171.151,1,0
2013-11-12 15:15:41.083,74,7.4,52.1701,4.458468,0,2.187554,359.1495,10.55043,10,1384265535,-0.3531342,-0.8613129,-0.444519,10.98478,-25.2747,-25.42199,41.14333,40.79961,26,0.0.0.0,10.139.171.151,1,0
2013-11-12 15:15:41.206,75,7.5,52.17014,4.458473,0,2.111223,325.8209,10.50875,10,1384265536,-0.412384,-0.8531342,-0.4233704,10.21368,-26.81033,-24.04386,36.64787,36.30416,26,0.0.0.0,10.139.171.151,1,0
2013-11-12 15:15:41.313,76,7.6,52.17014,4.458473,0,2.111223,325.8209,10.50875,10,1384265536,-0.3665619,-0.8141327,-0.4427643,10.98478,-27.24908,-24.38839,33.14627,32.80255,26,0.0.0.0,10.139.171.151,1,0
2013-11-12 15:15:41.453,77,7.7,52.17014,4.458473,0,2.111223,325.8209,10.50875,10,1384265536,-0.3700867,-0.821167,-0.4719696,11.75587,-30.75908,-21.17277,23.20598,22.86226,26,0.0.0.0,10.139.171.151,1,0
2013-11-12 15:15:41.574,78,7.8,52.17014,4.458473,0,2.111223,325.8209,10.50875,10,1384265536,-0.3615875,-0.8184204,-0.4719391,11.59064,-31.03329,-20.54113,16.69742,16.3537,26,0.0.0.0,10.139.171.151,1,0
2013-11-12 15:15:41.729,79,7.9,52.17014,4.458473,0,2.111223,325.8209,10.50875,10,1384265536,-0.3305511,-0.809906,-0.4358215,12.03126,-32.56892,-18.3591,9.419966,9.076249,26,0.0.0.0,10.139.171.151,1,0
2013-11-12 15:15:42.070,80,8,52.17014,4.458473,0,2.111223,325.8209,10.50875,10,1384265536,-0.4522247,-0.8544159,-0.4361725,17.484,-35.58534,-5.898552,345.243,344.8993,26,0.0.0.0,10.139.171.151,1,0
2013-11-12 15:15:42.243,81,8.1,52.17014,4.458473,0,2.111223,325.8209,10.50875,10,1384265536,-0.3761597,-0.8091125,-0.4476929,18.75079,-35.74987,-2.740349,336.4406,336.0969,26,0.0.0.0,10.139.171.151,1,0
2013-11-12 15:15:42.469,82,8.2,52.17014,4.458461,0,2.084332,277.6128,10.45933,10,1384265537,-0.3123169,-0.8190155,-0.4279327,20.95392,-36.18863,-1.247383,334.6909,334.3471,26,0.0.0.0,10.139.171.151,1,0
2013-11-12 15:15:42.614,83,8.3,52.17014,4.458461,0,2.084332,277.6128,10.45933,10,1384265537,-0.3839874,-0.8477936,-0.4203644,19.90743,-36.35316,0.9920731,333.0552,332.7115,26,169.254.229.143,10.139.171.151,1,0
2013-11-12 15:15:43.094,84,8.400001,52.17014,4.458461,0,2.084332,277.6128,10.45933,10,1384265537,-0.3736115,-0.8851776,-0.4231262,21.83517,-39.15019,0.5901184,336.9935,336.6497,26,169.254.229.143,10.139.171.151,1,0
2013-11-12 15:15:43.220,85,8.5,52.17014,4.458461,0,2.084332,277.6128,10.45933,10,1384265537,-0.3283844,-0.8151703,-0.4727936,23.65275,-38.21785,-1.304802,341.9764,341.6327,26,169.254.229.143,10.139.171.151,1,0
2013-11-12 15:15:43.301,86,8.6,52.17014,4.458461,0,2.084332,277.6128,10.45933,10,1384265537,-0.3495941,-0.8011017,-0.4758301,20.89884,-36.13379,-5.554024,345.5948,345.2511,26,169.254.229.143,10.139.171.151,1,0
2013-11-12 15:15:43.416,87,8.7,52.17014,4.458429,0,2.122998,245.8447,10.43507,10,1384265538,-0.3291168,-0.8202209,-0.4951782,19.96251,-36.07894,-8.138008,346.2032,345.8595,26,169.254.229.143,10.139.171.151,1,0
2013-11-12 15:15:43.529,88,8.8,52.17014,4.458429,0,2.122998,245.8447,10.43507,10,1384265538,-0.3401031,-0.7956238,-0.4981842,19.46681,-34.15942,-6.587616,346.8907,346.547,26,169.254.229.143,10.139.171.151,1,0
2013-11-12 15:15:43.650,89,8.900001,52.17014,4.458429,0,2.122998,245.8447,10.43507,10,1384265538,-0.342392,-0.822876,-0.4913177,20.56837,-34.2691,-4.979805,345.9991,345.6554,26,169.254.229.143,10.139.171.151,1,0
2013-11-12 15:15:43.782,90,9,52.17014,4.458429,0,2.122998,245.8447,10.43507,10,1384265538,-0.3463593,-0.8121948,-0.5079193,21.28439,-33.77551,-3.084877,345.4036,345.0599,26,169.254.229.143,10.139.171.151,1,0
2013-11-12 15:15:43.994,91,9.1,52.17014,4.458429,0,2.122998,245.8447,10.43507,10,1384265538,-0.2901459,-0.7742157,-0.5077972,22.38595,-33.44645,-2.625504,345.15,344.8063,26,169.254.229.143,10.139.171.151,1,0
2013-11-12 15:15:44.104,92,9.2,52.17014,4.458429,0,2.122998,245.8447,10.43507,10,1384265538,-0.3564301,-0.8304901,-0.4991455,21.5047,-33.22708,-3.544258,345.3575,345.0138,26,169.254.229.143,10.139.171.151,1,0
2013-11-12 15:15:44.235,93,9.3,52.17014,4.458429,0,2.122998,245.8447,10.43507,10,1384265538,-0.3870087,-0.8240204,-0.4992828,20.45822,-35.47567,-5.439178,345.0099,344.6662,26,169.254.229.143,10.139.171.151,5,0
2013-11-12 15:15:44.385,94,9.400001,52.17014,4.458429,0,2.122998,245.8447,10.43507,10,1384265538,-0.3574829,-0.788269,-0.4788208,20.12775,-37.7791,-4.86496,346.688,346.3443,26,169.254.229.143,10.139.171.151,5,0
2013-11-12 15:15:44.509,95,9.5,52.17014,4.458429,0,2.122998,245.8447,10.43507,10,1384265538,-0.35466,-0.7873383,-0.4788208,20.78868,-36.13379,-3.716522,349.0323,348.6886,26,169.254.229.143,10.139.171.151,1,0
2013-11-12 15:15:44.621,96,9.6,52.17014,4.458399,0,2.146126,258.7203,10.34209,10,1384265539,-0.3557434,-0.820694,-0.4943085,21.78009,-34.04972,-3.601677,350.039,349.6953,26,169.254.229.143,10.139.171.151,1,0
2013-11-12 15:15:44.762,97,9.7,52.17014,4.458399,0,2.146126,258.7203,10.34209,10,1384265539,-0.3557434,-0.820694,-0.4943085,21.78009,-35.36598,-5.209488,350.1339,349.7901,26,169.254.229.143,10.139.171.151,1,0
2013-11-12 15:15:45.045,98,9.8,52.17014,4.458399,0,2.146126,258.7203,10.34209,10,1384265539,-0.3983765,-0.8659058,-0.5099335,19.68712,-37.12098,-5.898552,350.5133,350.1696,26,169.254.229.143,10.139.171.151,1,0
2013-11-12 15:15:45.154,99,9.900001,52.17014,4.458399,0,2.146126,258.7203,10.34209,10,1384265539,-0.3942261,-0.762085,-0.4741516,19.96251,-35.85957,-7.448944,351.1714,350.8276,26,169.254.229.143,10.139.171.151,1,0
2013-11-12 15:15:45.264,100,10,52.17014,4.458399,0,2.146126,258.7203,10.34209,10,1384265539,-0.3462677,-0.7684479,-0.5333405,19.57697,-35.47566,-8.769646,350.8188,350.475,26,169.254.229.143,10.139.171.151,1,0
2013-11-12 15:15:45.373,101,10.1,52.17014,4.458399,0,2.146126,258.7203,10.34209,10,1384265539,-0.3535309,-0.7764587,-0.5703583,18.75079,-33.44644,-6.53019,352.8061,352.4623,26,169.254.229.143,10.139.171.151,1,0
2013-11-12 15:15:45.447,102,10.2,52.17014,4.458399,0,2.146126,258.7203,10.34209,10,1384265539,-0.2863922,-0.8199463,-0.4765167,19.19142,-31.36238,-5.381752,353.5325,353.1888,26,169.254.229.143,10.139.171.151,1,0
2013-11-12 15:15:45.566,103,10.3,52.17014,4.458399,0,2.146126,258.7203,10.34209,10,1384265539,-0.211441,-0.7884216,-0.3916016,21.11915,-30.97847,-6.587616,353.7186,353.3749,26,169.254.229.143,10.139.171.151,1,0
2013-11-12 15:15:45.670,104,10.4,52.17014,4.458399,0,2.146126,258.7203,10.34209,10,1384265539,-0.247818,-0.7751007,-0.4034424,19.68712,-32.40441,-6.817299,354.1057,353.762,26,169.254.229.143,10.139.171.151,1,0
2013-11-12 15:15:45.794,105,10.5,52.17014,4.458363,0,2.17342,261.3252,10.24474,10,1384265540,-0.2206726,-0.9074097,-0.4935455,20.62345,-33.66582,-7.448944,354.3547,354.011,26,169.254.229.143,10.139.171.151,1,0
2013-11-12 15:15:46.047,106,10.6,52.17014,4.458363,0,2.17342,261.3252,10.24474,10,1384265540,-0.2825317,-0.8706512,-0.4549408,20.95392,-34.87239,-7.793472,355.1004,354.7567,26,169.254.229.143,10.139.171.151,1,0
2013-11-12 15:15:46.244,107,10.7,52.17014,4.458363,0,2.17342,261.3252,10.24474,10,1384265540,-0.2184601,-0.7632294,-0.4315948,20.2379,-34.92723,-7.161835,356.3582,356.0145,26,169.254.229.143,10.139.171.151,1,0
2013-11-12 15:15:46.464,108,10.8,52.17014,4.458363,0,2.17342,261.3252,10.24474,10,1384265540,-0.3535461,-0.8698273,-0.5214081,19.30157,-36.07894,-7.219254,355.0992,354.7555,26,169.254.229.143,10.139.171.151,1,0
2013-11-12 15:15:46.603,109,10.9,52.17014,4.458363,0,2.17342,261.3252,10.24474,10,1384265540,-0.2430115,-0.7612305,-0.4813538,18.4754,-35.47567,-8.769646,353.8698,353.5261,26,169.254.229.143,10.139.171.151,1,0
2013-11-12 15:15:46.720,110,11,52.17014,4.458363,0,2.17342,261.3252,10.24474,10,1384265540,-0.2650452,-0.8211975,-0.5689087,18.80587,-34.81755,-8.6548,354.4122,354.0685,26,169.254.229.143,10.139.171.151,1,0
2013-11-12 15:15:47.036,111,11.1,52.17014,4.458316,0,2.248254,268.0822,9.5,5,1384265541,-0.3542175,-0.7862854,-0.5781097,20.29298,-31.03333,-7.334099,240.8708,240.5271,25,169.254.229.143,10.139.171.151,1,0
2013-11-12 15:15:47.284,112,11.2,52.17014,4.458316,0,2.248254,268.0822,9.5,5,1384265541,-0.2686768,-0.7374115,-0.6032257,20.07267,-32.67864,-7.334099,241.009,240.6653,25,169.254.229.143,10.139.171.151,1,0
2013-11-12 15:15:47.385,113,11.3,52.17014,4.458316,0,2.248254,268.0822,9.5,5,1384265541,-0.3634949,-0.7576294,-0.5636139,19.57697,-34.3788,-7.965736,240.3816,240.0379,25,169.254.229.143,10.139.171.151,1,0
2013-11-12 15:15:47.505,114,11.4,52.17014,4.458316,0,2.248254,268.0822,9.5,5,1384265541,-0.3451691,-0.767807,-0.5683899,20.29298,-33.66583,-8.94191,241.0219,240.6782,25,169.254.229.143,10.139.171.151,1,0
2013-11-12 15:15:47.605,115,11.5,52.17014,4.458316,0,2.248254,268.0822,9.5,5,1384265541,-0.2901917,-0.7984161,-0.5914612,19.35665,-32.73349,-9.918083,238.4168,238.0731,25,169.254.229.143,10.139.171.151,1,0
2013-11-12 15:15:47.737,116,11.6,52.17014,4.458316,0,2.248254,268.0822,9.5,5,1384265541,-0.3117981,-0.7817383,-0.5205231,19.02618,-31.52692,-13.3634,243.5035,243.1598,25,169.254.229.143,10.139.171.151,1,0
2013-11-12 15:15:47.987,117,11.7,52.17014,4.458316,0,2.248254,268.0822,9.5,5,1384265541,-0.3312225,-0.7973785,-0.5663147,18.58556,-34.3788,-13.3634,243.1098,242.7661,25,169.254.229.143,10.139.171.151,1,0
2013-11-12 15:15:48.104,118,11.8,52.17014,4.458264,0,2.274458,270.8116,10.11339,10,1384265542,-0.2664948,-0.7996521,-0.5660553,17.9797,-32.45927,-11.92785,241.2105,240.8668,25,169.254.229.143,10.139.171.151,1,0
2013-11-12 15:15:48.248,119,11.9,52.17014,4.458264,0,2.274458,270.8116,10.11339,10,1384265542,-0.3115845,-0.7933197,-0.5068512,17.86954,-30.04614,-12.61691,244.0187,243.675,25,169.254.229.143,10.139.171.151,1,0
2013-11-12 15:15:48.398,120,12,52.17014,4.458264,0,2.274458,270.8116,10.11339,10,1384265542,-0.380661,-0.8095093,-0.5012512,19.41173,-31.14302,-11.69816,242.6687,242.325,25,169.254.229.143,10.139.171.151,1,0
2013-11-12 15:15:48.521,121,12.1,52.17014,4.458264,0,2.274458,270.8116,10.11339,10,1384265542,-0.3052368,-0.8171234,-0.5320892,20.67853,-30.75911,-11.87043,243.6432,243.2995,25,169.254.229.143,10.139.171.151,1,0
2013-11-12 15:15:48.689,122,12.2,52.17014,4.458264,0,2.274458,270.8116,10.11339,10,1384265542,-0.3085175,-0.8032074,-0.5106964,20.2379,-30.10098,-12.67433,244.0236,243.6798,25,169.254.229.143,10.139.171.151,1,0
2013-11-12 15:15:49.286,123,12.3,52.17014,4.458264,0,2.274458,270.8116,10.11339,10,1384265542,-0.354248,-0.802124,-0.4933777,20.95392,-33.33677,-12.50207,243.0903,242.7466,25,169.254.229.143,10.139.171.151,1,0
2013-11-12 15:15:49.615,124,12.4,52.17014,4.458264,0,2.274458,270.8116,10.11339,10,1384265542,-0.3294525,-0.8046265,-0.4971771,21.83517,-34.54333,-12.15754,241.8496,241.5059,25,169.254.229.143,10.139.171.151,1,0
2013-11-12 15:15:49.843,125,12.5,52.17014,4.458264,0,2.274458,270.8116,10.11339,10,1384265542,-0.309082,-0.8188324,-0.5135956,21.009,-32.6238,-13.24855,244.8448,244.5011,25,169.254.229.143,10.139.171.151,1,0
2013-11-12 15:15:50.096,126,12.6,52.17014,4.458264,0,2.274458,270.8116,10.11339,10,1384265542,-0.3342133,-0.7923737,-0.5575714,21.17423,-31.2527,-15.83253,248.7758,248.4321,25,169.254.229.143,10.139.171.151,1,0
2013-11-12 15:15:50.270,127,12.7,52.17014,4.458264,0,2.274458,270.8116,10.11339,10,1384265542,-0.3187561,-0.7268372,-0.5158386,19.41173,-31.58177,-16.75129,250.0183,249.6746,25,169.254.229.143,10.139.171.151,1,0
2013-11-12 15:15:50.413,128,12.8,52.17014,4.45821,0,2.339082,275.3925,9,10,1384265544,-0.2696075,-0.7523651,-0.5321045,17.92462,-31.41724,-17.61262,252.0552,251.7115,25,169.254.229.143,10.139.171.151,1,0
2013-11-12 15:15:50.526,129,12.9,52.17014,4.45821,0,2.339082,275.3925,9,10,1384265544,-0.2814941,-0.7698822,-0.5476837,17.42892,-30.3752,-16.98097,253.771,253.4273,25,169.254.229.143,10.139.171.151,1,0
2013-11-12 15:15:50.676,130,13,52.17014,4.45821,0,2.339082,275.3925,9,10,1384265544,-0.2533722,-0.8293915,-0.5854034,15.99689,-31.47208,-15.25832,250.1069,249.7632,25,169.254.229.143,10.139.171.151,1,0
2013-11-12 15:15:50.787,131,13.1,52.17014,4.45821,0,2.339082,275.3925,9,10,1384265544,-0.1992035,-0.787384,-0.5755463,14.84025,-31.7463,-16.34933,250.511,250.1673,25,169.254.229.143,10.139.171.151,1,0
2013-11-12 15:15:50.989,132,13.2,52.17014,4.45821,0,2.339082,275.3925,9,10,1384265544,-0.2263794,-0.7662048,-0.5630646,18.03478,-28.56536,-14.74152,251.4189,251.0752,25,169.254.229.143,10.139.171.151,1,0
2013-11-12 15:15:51.102,133,13.3,52.17014,4.45821,0,2.339082,275.3925,9,10,1384265544,-0.2844849,-0.8480072,-0.5503998,17.484,-30.53973,-15.08605,249.4514,249.1077,25,169.254.229.143,10.139.171.151,1,0
2013-11-12 15:15:51.216,134,13.4,52.17014,4.45821,0,2.339082,275.3925,9,10,1384265544,-0.2138672,-0.8040619,-0.6145172,17.53907,-30.70427,-15.94738,251.1754,250.8316,25,169.254.229.143,10.139.171.151,1,0
2013-11-12 15:15:51.322,135,13.5,52.17014,4.45821,0,2.339082,275.3925,9,10,1384265544,-0.2331085,-0.8406067,-0.5921021,17.75939,-30.92364,-15.25832,247.9369,247.5932,25,169.254.229.143,10.139.171.151,1,0
2013-11-12 15:15:51.426,136,13.6,52.17014,4.458156,0,2.413083,291.9924,9,5,1384265544,-0.2461853,-0.7810822,-0.521225,17.15353,-29.00411,-18.18684,253.6523,253.3086,25,169.254.229.143,10.139.171.151,1,0
2013-11-12 15:15:51.564,137,13.7,52.17014,4.458156,0,2.413083,291.9924,9,5,1384265544,-0.2262421,-0.7356262,-0.5319672,16.16212,-29.44286,-17.8423,253.8875,253.5437,25,169.254.229.143,10.139.171.151,1,0
2013-11-12 15:15:51.703,138,13.8,52.17014,4.458156,0,2.413083,291.9924,9,5,1384265544,-0.2403564,-0.7842102,-0.5319061,15.28087,-30.21067,-18.30167,255.6589,255.3152,25,169.254.229.143,10.139.171.151,1,0
2013-11-12 15:15:51.848,139,13.9,52.17014,4.458156,0,2.413083,291.9924,9,5,1384265544,-0.2403564,-0.7842102,-0.5319061,15.61134,-30.53973,-18.76105,257.916,257.5723,25,169.254.229.143,10.139.171.151,1,0
2013-11-12 15:15:52.131,140,14,52.17014,4.458156,0,2.413083,291.9924,9,5,1384265544,-0.2127533,-0.8296814,-0.526825,15.28087,-30.10099,-20.13918,266.9907,266.647,25,169.254.229.143,10.139.171.151,1,0
2013-11-12 15:15:52.288,141,14.1,52.17014,4.458156,0,2.413083,291.9924,9,5,1384265544,-0.2698364,-0.8658752,-0.5473938,13.79376,-29.38802,-19.85207,267.8618,267.5181,25,169.254.229.143,10.139.171.151,1,0
2013-11-12 15:15:52.435,142,14.2,52.17014,4.458156,0,2.413083,291.9924,9,5,1384265544,-0.2527466,-0.9016266,-0.5725403,15.39103,-27.24911,-18.87589,270.6304,270.2867,25,169.254.229.143,10.139.171.151,1,0
2013-11-12 15:15:52.611,143,14.3,52.17014,4.458156,0,2.413083,291.9924,9,5,1384265544,-0.2271881,-0.772995,-0.5581818,15.99689,-26.75552,-18.3591,270.7284,270.3847,25,169.254.229.143,10.139.171.151,1,0
2013-11-12 15:15:52.770,144,14.4,52.17014,4.458156,0,2.413083,291.9924,9,5,1384265544,-0.2567444,-0.8096466,-0.5718231,15.00548,-27.52333,-17.32551,266.3623,266.0186,25,169.254.229.143,10.139.171.151,1,0
2013-11-12 15:15:52.983,145,14.5,52.17015,4.458113,0,2.448037,294.4946,9,5,1384265545,-0.239624,-0.7641754,-0.5835571,15.66642,-27.85239,-19.73722,272.3254,271.9817,25,169.254.229.143,10.139.171.151,1,0
2013-11-12 15:15:53.119,146,14.6,52.17015,4.458113,0,2.448037,294.4946,9,5,1384265545,-0.223938,-0.7430115,-0.5874481,13.29806,-28.12661,-20.48371,273.4966,273.1529,25,169.254.229.143,10.139.171.151,1,0
2013-11-12 15:15:53.234,147,14.7,52.17015,4.458113,0,2.448037,294.4946,9,5,1384265545,-0.2596741,-0.7608337,-0.5836487,13.90392,-28.94926,-21.23019,277.3181,276.9743,25,169.254.229.143,10.139.171.151,1,0
2013-11-12 15:15:53.865,148,14.8,52.17015,4.458113,0,2.448037,294.4946,9,5,1384265545,-0.3562164,-0.786087,-0.5596313,13.40821,-29.00411,-21.86183,277.9783,277.6346,25,169.254.229.143,10.139.171.151,1,0
2013-11-12 15:15:54.397,149,14.9,52.17015,4.458113,0,2.448037,294.4946,9,5,1384265545,-0.3454895,-0.7559662,-0.5557709,11.31525,-26.81036,-25.1923,283.3699,283.0262,25,169.254.229.143,10.139.171.151,1,0
2013-11-12 15:15:54.846,150,15,52.17017,4.458065,0,2.434306,296.0923,9,5,1384265546,-0.3251953,-0.725235,-0.5703735,12.85743,-28.56536,-23.81417,277.3904,277.0467,25,169.254.229.143,10.139.171.151,1,0
2013-11-12 15:15:55.176,151,15.1,52.17017,4.458065,0,2.434306,296.0923,9,5,1384265546,-0.3060608,-0.8089752,-0.6051178,11.64572,-29.1138,-27.14465,282.1428,281.799,25,169.254.229.143,10.139.171.151,1,0
2013-11-12 15:15:55.382,152,15.2,52.17017,4.458065,0,2.434306,296.0923,9,5,1384265546,-0.2949829,-0.7870026,-0.6363068,12.74728,-28.34599,-25.65168,279.6794,279.3356,25,169.254.229.143,10.139.171.151,1,0
2013-11-12 15:15:55.542,153,15.3,52.17017,4.458065,0,2.434306,296.0923,9,5,1384265546,-0.2142029,-0.7884674,-0.6203918,12.52697,-28.78473,-26.2259,279.8617,279.518,25,169.254.229.143,10.139.171.151,1,0
2013-11-12 15:15:55.756,154,15.4,52.17017,4.458065,0,2.434306,296.0923,9,5,1384265546,-0.2483521,-0.7954712,-0.6049347,12.14142,-29.05896,-25.24972,276.6254,276.2817,25,169.254.229.143,10.139.171.151,1,0
2013-11-12 15:15:56.047,155,15.5,52.17017,4.458065,0,2.434306,296.0923,9,5,1384265546,-0.2607727,-0.7157135,-0.5643005,12.25158,-28.51052,-26.62785,281.3054,280.9616,25,169.254.229.143,10.139.171.151,1,0
2013-11-12 15:15:56.176,156,15.6,52.17017,4.458065,0,2.434306,296.0923,9,5,1384265546,-0.284729,-0.7074127,-0.5673523,12.14142,-29.93646,-25.36457,274.9514,274.6077,25,169.254.229.143,10.139.171.151,1,0
2013-11-12 15:15:56.315,157,15.7,52.17017,4.458065,0,2.434306,296.0923,9,5,1384265546,-0.3363495,-0.7862396,-0.5332489,11.59064,-29.93646,-25.59426,272.976,272.6323,25,169.254.229.143,10.139.171.151,1,0
2013-11-12 15:15:56.418,158,15.8,52.17017,4.458029,0,2.325064,301.5546,9,5,1384265547,-0.321579,-0.7716522,-0.5088959,11.86603,-30.10099,-25.88137,272.5984,272.2547,25,169.254.229.143,10.139.171.151,1,0
2013-11-12 15:15:56.585,159,15.9,52.17017,4.458029,0,2.325064,301.5546,9,5,1384265547,-0.3250275,-0.7862854,-0.5127716,11.81095,-29.82677,-25.02004,271.6316,271.2879,25,169.254.229.143,10.139.171.151,1,0
2013-11-12 15:15:56.703,160,16,52.17017,4.458029,0,2.325064,301.5546,9,5,1384265547,-0.3206024,-0.8156281,-0.5068207,12.30665,-30.21067,-24.96261,271.3784,271.0347,25,169.254.229.143,10.139.171.151,1,0
2013-11-12 15:15:56.807,161,16.1,52.17017,4.458029,0,2.325064,301.5546,9,5,1384265547,-0.2824097,-0.825058,-0.4940033,11.70079,-30.04614,-24.10128,271.0329,270.6892,25,169.254.229.143,10.139.171.151,1,0
2013-11-12 15:15:56.990,162,16.2,52.17017,4.458029,0,2.325064,301.5546,9,5,1384265547,-0.2486725,-0.8509064,-0.4684906,12.80236,-31.14302,-25.02004,270.7296,270.3859,25,169.254.229.143,10.139.171.151,1,0
2013-11-12 15:15:57.170,163,16.3,52.17017,4.458029,0,2.325064,301.5546,9,5,1384265547,-0.2675781,-0.8582611,-0.4549103,12.14142,-31.47208,-25.36457,270.5692,270.2255,25,169.254.229.143,10.139.171.151,1,0
2013-11-12 15:15:57.295,164,16.4,52.17017,4.458029,0,2.325064,301.5546,9,5,1384265547,-0.2633209,-0.879776,-0.4490204,11.15001,-30.48489,-25.13488,270.4904,270.1467,25,169.254.229.143,10.139.171.151,1,0
2013-11-12 15:15:57.387,165,16.5,52.17017,4.458029,0,2.325064,301.5546,9,5,1384265547,-0.2609406,-0.8620453,-0.4285889,11.81095,-30.37521,-25.02004,270.4752,270.1314,25,169.254.229.143,10.139.171.151,1,0
2013-11-12 15:15:57.487,166,16.6,52.17017,4.458029,0,2.325064,301.5546,9,5,1384265547,-0.2819824,-0.8633423,-0.401413,11.59064,-29.38802,-25.7091,270.5962,270.2525,25,169.254.229.143,10.139.171.151,1,0
2013-11-12 15:15:57.593,167,16.7,52.17017,4.458029,0,2.325064,301.5546,9,5,1384265547,-0.3003082,-0.8951416,-0.3926544,12.08634,-30.10099,-26.11105,270.7533,270.4096,25,169.254.229.143,10.139.171.151,1,0
2013-11-12 15:15:57.729,168,16.8,52.17017,4.458029,0,0,301.5546,9.07851,5,1384265548,-0.3434143,-0.9254913,-0.3849335,11.92111,-30.59458,-24.90519,270.7588,270.4151,25,169.254.229.143,10.139.171.151,1,0
2013-11-12 15:15:57.834,169,16.9,52.17017,4.458029,0,0,301.5546,9.07851,5,1384265548,-0.3471222,-0.8602295,-0.3101501,11.59064,-29.4977,-25.82394,270.9509,270.6072,25,169.254.229.143,10.139.171.151,1,0
2013-11-12 15:15:58.080,170,17,52.17017,4.458029,0,0,301.5546,9.07851,5,1384265548,-0.3598633,-0.8844757,-0.3140411,11.26017,-29.82676,-25.24972,271.0363,270.6926,25,169.254.229.143,10.139.171.151,1,0
2013-11-12 15:15:58.230,171,17.1,52.17017,4.458029,0,0,301.5546,9.07851,5,1384265548,-0.3763733,-0.9488525,-0.3402405,12.1965,-29.77192,-25.99621,271.1788,270.8351,25,169.254.229.143,10.139.171.151,1,0
2013-11-12 15:15:58.389,172,17.2,52.17017,4.458029,0,0,301.5546,9.07851,5,1384265548,-0.3586121,-0.9271088,-0.3791504,11.03986,-29.93646,-25.02004,271.3604,271.0167,25,169.254.229.143,10.139.171.151,1,0
2013-11-12 15:15:58.500,173,17.3,52.17017,4.458029,0,0,301.5546,9.07851,5,1384265548,-0.299881,-0.9203033,-0.3653259,11.4254,-30.8688,-22.5509,271.2303,270.8866,25,169.254.229.143,10.139.171.151,1,0
2013-11-12 15:15:58.703,174,17.4,52.17017,4.458029,0,0,301.5546,9.07851,5,1384265548,-0.2917328,-0.8636169,-0.3449707,11.53556,-30.53973,-21.63215,270.7576,270.4138,25,169.254.229.143,10.139.171.151,1,0
2013-11-12 15:15:58.840,175,17.5,52.17017,4.458029,0,0,301.5546,9.07851,5,1384265548,-0.2917328,-0.8636169,-0.3449707,11.53556,-29.9913,-21.17277,270.3066,269.9629,25,169.254.229.143,10.139.171.151,1,0
2013-11-12 15:15:59.085,176,17.6,52.17017,4.458029,0,0,301.5546,9.162622,5,1384265549,-0.2830658,-0.8901062,-0.4451752,11.09493,-30.32036,-22.5509,270.0237,269.68,25,169.254.229.143,10.139.171.151,1,0
2013-11-12 15:15:59.192,177,17.7,52.17017,4.458029,0,0,301.5546,9.162622,5,1384265549,-0.2908936,-0.8755035,-0.47052,11.70079,-29.93645,-21.23019,269.7208,269.377,25,169.254.229.143,10.139.171.151,1,0
2013-11-12 15:15:59.299,178,17.8,52.17017,4.458029,0,0,301.5546,9.162622,5,1384265549,-0.3363647,-0.727417,-0.4039154,11.75587,-30.64943,-20.94308,269.5472,269.2035,25,169.254.229.143,10.139.171.151,1,0
2013-11-12 15:15:59.382,179,17.9,52.17017,4.458029,0,0,301.5546,9.162622,5,1384265549,-0.3461151,-0.7538452,-0.430191,11.26017,-30.26551,-20.88566,269.2895,268.9458,25,169.254.229.143,10.139.171.151,1,0
2013-11-12 15:15:59.477,180,18,52.17017,4.458029,0,0,301.5546,9.162622,5,1384265549,-0.3622437,-0.8731995,-0.4786224,12.03126,-30.70427,-21.68957,269.1574,268.8137,25,169.254.229.143,10.139.171.151,1,0
2013-11-12 15:15:59.747,181,18.1,52.17017,4.458029,0,0,301.5546,9.162622,5,1384265549,-0.3261871,-0.7457275,-0.4622498,11.53556,-30.10099,-22.09152,269.0629,268.7192,25,169.254.229.143,10.139.171.151,1,0
2013-11-12 15:16:00.067,182,18.2,52.17017,4.458029,0,0,301.5546,9.162622,5,1384265549,-0.3826294,-0.853302,-0.4855499,10.54415,-30.32036,-20.82824,263.7748,263.4311,25,169.254.229.143,10.139.171.151,1,0
2013-11-12 15:16:00.269,183,18.3,52.17017,4.458029,0,0,301.5546,9.162622,5,1384265549,-0.2592621,-0.772934,-0.4054565,9.993372,-30.8688,-21.17277,263.2279,262.8842,25,169.254.229.143,10.139.171.151,1,0
2013-11-12 15:16:00.488,184,18.4,52.17017,4.458029,0,0,301.5546,9.221453,5,1384265550,-0.3397064,-0.8422089,-0.3530121,9.387512,-30.81395,-22.26379,265.141,264.7972,25,169.254.229.143,10.139.171.151,1,0
2013-11-12 15:16:00.619,185,18.5,52.17017,4.458029,0,0,301.5546,9.221453,5,1384265550,-0.3258209,-0.9529572,-0.3565521,10.76447,-29.9913,-21.40246,263.157,262.8133,25,169.254.229.143,10.139.171.151,1,0
2013-11-12 15:16:00.742,186,18.6,52.17017,4.458029,0,0,301.5546,9.221453,5,1384265550,-0.3059845,-0.9474487,-0.3526001,10.54415,-29.44286,-21.74699,263.2506,262.9069,25,169.254.229.143,10.139.171.151,1,0
2013-11-12 15:16:01.098,187,18.7,52.17017,4.458029,0,0,301.5546,9.221453,5,1384265550,-0.2207031,-0.8718414,-0.451767,10.26876,-30.15583,-21.45988,263.4661,263.1224,25,169.254.229.143,10.139.171.151,1,0
2013-11-12 15:16:01.224,188,18.8,52.17017,4.458029,0,0,301.5546,9.221453,5,1384265550,-0.2209625,-0.8516693,-0.4927368,9.77306,-30.32036,-21.40246,264.2449,263.9012,25,169.254.229.143,10.139.171.151,1,0
2013-11-12 15:16:01.360,189,18.9,52.17017,4.458029,0,0,301.5546,9.221453,5,1384265550,-0.1169281,-0.7646942,-0.5859985,10.87462,-30.21067,-24.73293,264.5804,264.2367,25,169.254.229.143,10.139.171.151,1,0
2013-11-12 15:16:01.463,190,19,52.17017,4.458029,0,0,301.5546,9.221453,5,1384265550,-0.09934998,-0.7911835,-0.558609,11.53556,-29.1138,-24.15871,265.2732,264.9295,25,169.254.229.143,10.139.171.151,1,0
2013-11-12 15:16:01.597,191,19.1,52.17017,4.458029,0,0,301.5546,9.221453,5,1384265550,-0.1403809,-0.8695374,-0.5614777,11.20509,-29.33318,-24.73293,266.1513,265.8076,25,169.254.229.143,10.139.171.151,1,0
2013-11-12 15:16:01.728,192,19.2,52.17017,4.458029,0,0,290.6627,9.135796,5,1384265551,-0.03086853,-0.7850342,-0.5943604,11.31525,-29.9913,-25.65168,266.5341,266.1903,25,169.254.229.143,10.139.171.151,1,0
2013-11-12 15:16:01.849,193,19.3,52.17017,4.458029,0,0,290.6627,9.135796,5,1384265551,-0.01737976,-0.865036,-0.6554413,11.70079,-30.48489,-25.59426,266.7826,266.4388,25,169.254.229.143,10.139.171.151,1,0
2013-11-12 15:16:02.140,194,19.4,52.17017,4.458029,0,0,290.6627,9.135796,5,1384265551,-0.07275391,-0.7411804,-0.5888214,9.883215,-30.75911,-25.42199,267.1473,266.8036,25,169.254.229.143,10.139.171.151,1,0
2013-11-12 15:16:02.263,195,19.5,52.17017,4.458029,0,0,290.6627,9.135796,5,1384265551,-0.1275787,-0.7557068,-0.5889893,10.87462,-30.64943,-25.42199,267.3486,267.0049,25,169.254.229.143,10.139.171.151,1,0
2013-11-12 15:16:02.558,196,19.6,52.17017,4.458029,0,0,290.6627,9.135796,5,1384265551,-0.1986542,-0.8090363,-0.5910797,10.9297,-31.14302,-24.44582,267.4473,267.1035,25,169.254.229.143,10.139.171.151,1,0
2013-11-12 15:16:02.749,197,19.7,52.17017,4.458029,0,0,290.6627,9.135796,5,1384265551,-0.2215576,-0.76828,-0.5640106,10.48907,-30.37521,-25.93879,267.6716,267.3279,25,169.254.229.143,10.139.171.151,1,0
2013-11-12 15:16:02.924,198,19.8,52.17017,4.458029,0,0,290.6627,9.135796,5,1384265551,-0.1516113,-0.7538757,-0.5452728,10.04845,-31.14302,-25.59426,268.0055,267.6618,25,169.254.229.143,10.139.171.151,1,0
2013-11-12 15:16:03.100,199,19.9,52.17017,4.458029,0,0,290.6627,9.135796,5,1384265551,-0.1298065,-0.7858734,-0.5791779,10.76447,-30.53974,-26.11105,268.3048,267.9611,25,169.254.229.143,10.139.171.151,1,0
2013-11-12 15:16:03.209,200,20,52.17017,4.458029,0,0,290.6627,9.135796,5,1384265551,-0.1423035,-0.7124634,-0.7040405,10.9297,-29.93645,-25.13488,268.5347,268.191,25,169.254.229.143,10.139.171.151,1,0
2013-11-12 15:16:03.303,201,20.1,52.17017,4.458029,0,0,290.6627,9.18484,5,1384265552,-0.06681824,-0.939743,-0.7060699,10.37892,-29.4977,-25.47941,268.6941,268.3503,25,169.254.229.143,10.139.171.151,1,0
2013-11-12 15:16:03.418,202,20.2,52.17017,4.458029,0,0,290.6627,9.18484,5,1384265552,-0.1843109,-0.6983032,-0.5260773,10.65431,-31.7463,-25.1923,268.8372,268.4935,25,169.254.229.143,10.139.171.151,1,0
2013-11-12 15:16:03.550,203,20.3,52.17017,4.458029,0,0,290.6627,9.18484,5,1384265552,-0.1043854,-0.6335907,-0.6515198,10.54415,-31.30755,-25.1923,268.9387,268.595,25,169.254.229.143,10.139.171.151,1,0
2013-11-12 15:16:03.662,204,20.4,52.17017,4.458029,0,0,290.6627,9.18484,5,1384265552,-0.08535767,-0.9945068,-0.7517548,11.59064,-29.16864,-25.24972,269.2556,268.9119,25,169.254.229.143,10.139.171.151,1,0
2013-11-12 15:16:03.817,205,20.5,52.17017,4.458029,0,0,290.6627,9.18484,5,1384265552,-0.1136322,-0.7610168,-0.4964294,9.662903,-30.32036,-25.76652,269.4652,269.1215,25,169.254.229.143,10.139.171.151,1,0
2013-11-12 15:16:04.067,206,20.6,52.17017,4.458029,0,0,290.6627,9.18484,5,1384265552,-0.0866394,-0.8500214,-0.55159,10.434,-29.88161,-25.65168,269.683,269.3393,25,169.254.229.143,10.139.171.151,1,0
2013-11-12 15:16:04.227,207,20.7,52.17017,4.458029,0,0,290.6627,9.18484,5,1384265552,-0.1749573,-0.9401245,-0.5536346,10.54415,-30.21067,-25.76652,269.8688,269.5251,25,169.254.229.143,10.139.171.151,1,0
2013-11-12 15:16:04.386,208,20.8,52.17017,4.458029,0,0,290.6627,9.18484,5,1384265552,-0.245697,-0.7671509,-0.4920654,9.828136,-29.71708,-25.02004,270.1654,269.8217,25,169.254.229.143,10.139.171.151,1,0
2013-11-12 15:16:04.533,209,20.9,52.17017,4.458029,0,0,290.6627,9.18484,5,1384265552,-0.1885529,-0.8001099,-0.5550385,9.77306,-30.43005,-24.61808,270.3281,269.9844,25,169.254.229.143,10.139.171.151,1,0
2013-11-12 15:16:04.754,210,21,52.17019,4.458027,0,0.4071089,51.61231,9.230949,10,1384265553,-0.2155151,-0.7942963,-0.5093994,13.40821,-30.75911,-24.61808,270.4561,270.1123,25,169.254.229.143,10.139.171.151,1,0
2013-11-12 15:16:05.010,211,21.1,52.17019,4.458027,0,0.4071089,51.61231,9.230949,10,1384265553,-0.1569824,-0.8562012,-0.526535,13.24298,-30.15583,-25.13488,270.3909,270.0472,25,169.254.229.143,10.139.171.151,1,0
2013-11-12 15:16:05.101,212,21.2,52.17019,4.458027,0,0.4071089,51.61231,9.230949,10,1384265553,-0.2623749,-0.7779083,-0.5320129,12.85743,-29.66224,-23.69933,270.4274,270.0836,25,169.254.229.143,10.139.171.151,1,0
2013-11-12 15:16:05.225,213,21.3,52.17019,4.458027,0,0.4071089,51.61231,9.230949,10,1384265553,-0.2395477,-0.7064819,-0.4707642,12.25158,-31.2527,-23.52706,270.3767,270.033,25,169.254.229.143,10.139.171.151,1,0
2013-11-12 15:16:05.320,214,21.4,52.17019,4.458027,0,0.4071089,51.61231,9.230949,10,1384265553,-0.2464905,-0.6833496,-0.5205078,12.74728,-31.52692,-24.73293,270.3004,269.9567,25,169.254.229.143,10.139.171.151,1,0
2013-11-12 15:16:05.543,215,21.5,52.17019,4.458027,0,0.4071089,51.61231,9.230949,10,1384265553,0.7362976,-0.1545868,-0.9532318,12.41681,-30.53974,-24.50324,270.2516,269.9079,25,169.254.229.143,10.139.171.151,1,0
2013-11-12 15:16:05.665,216,21.6,52.17019,4.458027,3.544403,0,51.61231,9.552922,10,1384265554,-0.4475861,-0.8859558,-0.6745911,12.52697,-30.43005,-25.30715,270.343,269.9993,25,169.254.229.143,10.139.171.151,1,0
2013-11-12 15:16:05.828,217,21.7,52.17019,4.458027,3.544403,0,51.61231,9.552922,10,1384265554,-0.1935577,-0.9778442,-0.8768616,12.96759,-30.64943,-23.5845,270.3507,270.007,25,169.254.229.143,10.139.171.151,1,0
2013-11-12 15:16:06.081,218,21.8,52.17019,4.458027,3.544403,0,51.61231,9.552922,10,1384265554,-0.4579315,-1.033676,-0.3889923,13.51837,-29.88161,-24.50324,270.3833,270.0396,25,169.254.229.143,10.139.171.151,1,0
2013-11-12 15:16:06.229,219,21.9,52.17019,4.458027,3.544403,0,51.61231,9.552922,10,1384265554,-0.2714386,-0.9775543,-0.6912079,12.6922,-30.92364,-22.95284,270.3582,270.0145,25,169.254.229.143,10.139.171.151,1,0
2013-11-12 15:16:06.385,220,22,52.17019,4.458027,3.544403,0,51.61231,9.552922,10,1384265554,0.04289246,-0.6960297,-0.5310211,13.73868,-30.21067,-24.50324,270.4561,270.1123,25,169.254.229.143,10.139.171.151,1,0
2013-11-12 15:16:06.495,221,22.1,52.17019,4.458027,3.544403,0,51.61231,9.552922,10,1384265554,-0.06529236,-0.8278961,-0.5466919,13.90392,-30.48489,-24.56066,270.506,270.1623,25,169.254.229.143,10.139.171.151,1,0
2013-11-12 15:16:06.795,222,22.2,52.17019,4.458027,3.544403,0,51.61231,9.552922,10,1384265554,-0.1818085,-0.7033234,-0.4257812,14.23439,-31.14302,-23.8716,270.5722,270.2285,25,169.254.229.143,10.139.171.151,1,0
2013-11-12 15:16:07.095,223,22.3,52.17019,4.458027,3.544403,0,51.61231,9.552922,10,1384265554,-0.1960297,-0.8105164,-0.5326385,13.24298,-29.93646,-24.33097,270.5383,270.1946,25,169.254.229.143,10.139.171.151,1,0
2013-11-12 15:16:07.234,224,22.4,52.17019,4.458027,7.647812,0,51.61231,9.933563,10,1384265555,-0.2007904,-0.798233,-0.591095,13.68361,-30.37521,-23.18253,270.5598,270.2161,25,169.254.229.143,10.139.171.151,1,0
2013-11-12 15:16:07.360,225,22.5,52.17019,4.458027,7.647812,0,51.61231,9.933563,10,1384265555,-0.1237335,-0.8035278,-0.5742493,11.31525,-29.44286,-24.27355,270.5685,270.2248,25,169.254.229.143,10.139.171.151,1,0
2013-11-12 15:16:07.484,226,22.6,52.17019,4.458027,7.647812,0,51.61231,9.933563,10,1384265555,-0.05479431,-0.7908478,-0.532135,12.74728,-30.21067,-23.81417,270.8026,270.4589,25,169.254.229.143,10.139.171.151,1,0
2013-11-12 15:16:07.613,227,22.7,52.17019,4.458027,7.647812,0,51.61231,9.933563,10,1384265555,-0.06591797,-0.86586,-0.637146,13.24298,-29.27833,-25.13488,271.0147,270.671,25,169.254.229.143,10.139.171.151,1,0
2013-11-12 15:16:07.814,228,22.8,52.17019,4.458027,7.647812,0,51.61231,9.933563,10,1384265555,-0.239212,-0.7724457,-0.6341705,12.03126,-29.93645,-23.98644,271.0918,270.7481,25,169.254.229.143,10.139.171.151,1,0
2013-11-12 15:16:08.043,229,22.9,52.17019,4.458027,7.647812,0,51.61231,9.933563,10,1384265555,-0.2069092,-0.7786255,-0.5960693,12.36173,-30.15583,-25.47941,271.2582,270.9145,25,169.254.229.143,10.139.171.151,1,0
2013-11-12 15:16:08.208,230,23,52.17019,4.458027,7.647812,0,51.61231,9.933563,10,1384265555,-0.1525421,-0.8379211,-0.5489655,12.36173,-29.71708,-23.98644,271.3872,271.0435,25,169.254.229.143,10.139.171.151,1,0
2013-11-12 15:16:08.367,231,23.1,52.17019,4.458027,7.647812,0,51.61231,9.933563,10,1384265555,-0.2046509,-0.9746246,-0.5429535,14.06915,-28.89442,-24.73293,271.5912,271.2475,25,169.254.229.143,10.139.171.151,1,0
2013-11-12 15:16:08.533,232,23.2,52.17019,4.458027,11.13595,0,51.61231,10.03812,10,1384265556,-0.2138062,-0.7566376,-0.4491425,12.52697,-29.1138,-23.92902,271.6935,271.3498,25,169.254.229.143,10.139.171.151,1,0
2013-11-12 15:16:08.689,233,23.3,52.17019,4.458027,11.13595,0,51.61231,10.03812,10,1384265556,-0.1479034,-0.7266846,-0.4499207,12.25158,-29.27833,-25.02004,271.8686,271.5249,25,169.254.229.143,10.139.171.151,1,0
2013-11-12 15:16:08.813,234,23.4,52.17019,4.458027,11.13595,0,51.61231,10.03812,10,1384265556,-0.2398224,-0.8469849,-0.5522003,12.74728,-29.22348,-23.92902,271.9796,271.6358,25,169.254.229.143,10.139.171.151,1,0
2013-11-12 15:16:09.038,235,23.5,52.17019,4.458027,11.13595,0,51.61231,10.03812,10,1384265556,-0.2827606,-1.031784,-0.4408875,13.29806,-29.44286,-24.61808,272.1644,271.8207,25,169.254.229.143,10.139.171.151,1,0
2013-11-12 15:16:09.168,236,23.6,52.17019,4.458027,11.13595,0,51.61231,10.03812,10,1384265556,-0.08345032,-0.8937683,-0.4122467,11.81095,-29.82677,-24.90519,272.2189,271.8752,25,169.254.229.143,10.139.171.151,1,0
2013-11-12 15:16:09.312,237,23.7,52.17019,4.458027,11.13595,0,51.61231,10.03812,10,1384265556,-0.1389008,-0.9621735,-0.4258881,11.86603,-29.44286,-24.50324,272.3216,271.9778,25,169.254.229.143,10.139.171.151,1,0
2013-11-12 15:16:09.608,238,23.8,52.17019,4.458027,11.13595,0,51.61231,10.03812,10,1384265556,-0.1698151,-0.7896118,-0.54039,11.97618,-29.33317,-24.38839,272.2961,271.9523,25,169.254.229.143,10.139.171.151,1,0
2013-11-12 15:16:09.834,239,23.9,52.17019,4.458027,11.13595,0,51.61231,10.03812,10,1384265556,-0.1235352,-0.7712097,-0.5645752,12.58204,-28.94926,-23.29739,272.3699,272.0262,25,169.254.229.143,10.139.171.151,1,0
2013-11-12 15:16:10.117,240,24,52.17019,4.458027,14.7509,0,51.61231,10.28504,10,1384265557,-0.18573,-0.786087,-0.620285,12.80236,-28.72989,-23.64191,272.3996,272.0559,25,169.254.229.143,10.139.171.151,1,0
2013-11-12 15:16:10.333,241,24.1,52.17019,4.458027,14.7509,0,51.61231,10.28504,10,1384265557,-0.18573,-0.786087,-0.620285,12.41681,-29.22348,-24.15871,272.4913,272.1476,25,169.254.229.143,10.139.171.151,1,0
2013-11-12 15:16:10.479,242,24.2,52.17019,4.458027,14.7509,0,51.61231,10.28504,10,1384265557,0.008255005,-0.8019257,-0.538681,12.85743,-29.66224,-23.23995,272.5833,272.2395,25,169.254.229.143,10.139.171.151,1,0
2013-11-12 15:16:10.624,243,24.3,52.17019,4.458027,14.7509,0,51.61231,10.28504,10,1384265557,-0.07826233,-0.9936523,-0.6407318,12.52697,-29.1138,-23.23995,272.571,272.2273,25,169.254.229.143,10.139.171.151,1,0
2013-11-12 15:16:10.751,244,24.4,52.17019,4.458027,14.7509,0,51.61231,10.28504,10,1384265557,0.00567627,-0.7267456,-0.5515442,12.25158,-29.38802,-22.60831,272.5231,272.1794,25,169.254.229.143,10.139.171.151,1,0
2013-11-12 15:16:11.019,245,24.5,52.17019,4.458027,14.7509,0,51.61231,10.28504,10,1384265557,-0.170105,-0.7984161,-0.6493988,11.4254,-29.44286,-23.01028,272.383,272.0393,25,169.254.229.143,10.139.171.151,1,0
2013-11-12 15:16:11.118,246,24.6,52.17019,4.458027,14.7509,0,51.61231,10.28504,10,1384265557,-0.1401672,-0.6709747,-0.5415649,12.6922,-28.83958,-23.18253,272.3817,272.038,25,169.254.229.143,10.139.171.151,1,0
2013-11-12 15:16:11.264,247,24.7,52.17019,4.458027,14.7509,0,51.61231,10.28504,10,1384265557,-0.1929779,-0.7773438,-0.5317383,10.54415,-29.66224,-24.50324,272.3977,272.054,25,169.254.229.143,10.139.171.151,1,0
2013-11-12 15:16:11.382,248,24.8,52.17019,4.458027,14.7509,0,51.61231,10.28504,10,1384265557,-0.1932526,-0.8458862,-0.5471497,10.76447,-29.33317,-25.1923,272.5154,272.1717,25,169.254.229.143,10.139.171.151,1,0
2013-11-12 15:16:11.487,249,24.9,52.17019,4.458027,14.7509,0,51.61231,10.28504,10,1384265557,-0.2030029,-0.7640228,-0.4850616,12.25158,-30.04614,-24.90519,272.5862,272.2424,25,169.254.229.143,10.139.171.151,1,0
2013-11-12 15:16:11.628,250,25,52.17019,4.458027,13.90863,0,51.61231,10.40685,10,1384265558,-0.1798401,-0.8070984,-0.5511017,12.30665,-29.77192,-24.50324,272.5891,272.2454,25,169.254.229.143,10.139.171.151,1,0
2013-11-12 15:16:11.767,251,25.1,52.17019,4.458027,13.90863,0,51.61231,10.40685,10,1384265558,-0.1259155,-0.9065857,-0.6255798,13.68361,-30.26551,-23.18253,272.5036,272.1599,25,169.254.229.143,10.139.171.151,1,0
2013-11-12 15:16:12.249,252,25.2,52.17019,4.458027,13.90863,0,51.61231,10.40685,10,1384265558,-0.1717987,-0.8902893,-0.6559753,13.29806,-29.77192,-24.61808,272.3249,271.9812,25,169.254.229.143,10.139.171.151,1,0
2013-11-12 15:16:13.025,253,25.3,52.17019,4.458027,13.90863,0,51.61231,10.40685,10,1384265558,-0.1360474,-0.7510376,-0.6338196,13.959,-30.32036,-23.69933,271.8845,271.5408,25,145.118.83.22,10.139.171.151,1,0
2013-11-12 15:16:13.699,254,25.4,52.17019,4.458027,5.54715,0,51.61231,10.79711,10,1384265559,-0.1372223,-0.9253082,-0.5603333,11.53556,-30.43005,-23.3548,271.7427,271.399,25,145.118.83.22,10.139.171.151,1,0
2013-11-12 15:16:13.960,255,25.5,52.17019,4.458027,5.54715,0,51.61231,10.79711,10,1384265559,-0.07643127,-0.5545654,-0.4958344,12.03126,-30.04614,-24.79035,272.0759,271.7322,25,145.118.83.22,10.139.171.151,1,0
2013-11-12 15:16:15.122,256,25.6,52.17019,4.458027,5.54715,0,51.61231,10.79711,10,1384265559,-0.2286224,-0.901825,-0.6513062,11.15001,-29.71708,-24.21613,272.1161,271.7724,25,145.118.83.22,10.139.171.151,1,0
2013-11-12 15:16:17.300,257,25.7,52.17019,4.458027,5.54715,0,51.61231,10.79711,10,1384265559,-0.1392517,-0.6195679,-0.581604,10.54415,-29.77192,-24.73293,272.4792,272.1355,25,145.118.83.22,10.139.171.151,1,0
2013-11-12 15:16:17.780,258,25.8,52.17019,4.458027,7.413136,0,51.61231,9.5,5,1384265560,-0.2314148,-1.020508,-0.7074738,11.81095,-29.71708,-25.36457,272.6623,272.3186,25,145.118.83.22,10.139.171.151,1,0
2013-11-12 15:16:18.466,259,25.9,52.17019,4.458027,7.413136,0,51.61231,9.5,5,1384265560,-0.1483765,-0.7668304,-0.5656738,12.30665,-29.1138,-25.30715,272.8248,272.4811,25,145.118.83.22,10.139.171.151,1,0
2013-11-12 15:16:18.648,260,26,52.17019,4.458027,7.413136,0,51.61231,9.5,5,1384265560,-0.2376709,-0.96138,-0.665802,11.20509,-29.33317,-25.07746,273.0369,272.6932,25,145.118.83.22,10.139.171.151,1,0
2013-11-12 15:16:18.846,261,26.1,52.17019,4.458027,7.413136,0,51.61231,9.5,5,1384265560,-0.1695709,-0.7602386,-0.5346222,12.25158,-30.26552,-24.10128,273.0445,272.7008,25,145.118.83.22,10.139.171.151,1,0
2013-11-12 15:16:19.099,262,26.2,52.17019,4.458027,7.413136,0,51.61231,9.5,5,1384265560,-0.2018433,-0.7934113,-0.5979309,11.81095,-29.82676,-25.02004,273.0645,272.7208,25,145.118.83.22,10.139.171.151,1,0
2013-11-12 15:16:19.303,263,26.3,52.17019,4.458027,7.413136,0,51.61231,9.5,5,1384265560,-0.2339478,-0.9258575,-0.6191406,11.48048,-29.71708,-24.10128,273.1038,272.76,25,145.118.83.22,10.139.171.151,1,0
2013-11-12 15:16:19.427,264,26.4,52.17019,4.458027,7.413136,0,51.61231,9.5,5,1384265560,-0.1754303,-0.7570496,-0.5171204,12.80236,-29.4977,-24.90519,273.1665,272.8228,25,145.118.83.22,10.139.171.151,1,0
2013-11-12 15:16:19.587,265,26.5,52.17019,4.458027,8.735249,0,51.61231,9.5,5,1384265561,-0.09635925,-0.7541656,-0.5655212,12.6922,-29.4977,-23.52706,273.1756,272.8318,25,145.118.83.22,10.139.171.151,1,0
2013-11-12 15:16:19.731,266,26.6,52.17019,4.458027,8.735249,0,51.61231,9.5,5,1384265561,-0.1604156,-0.8148193,-0.6064911,10.81954,-29.27833,-22.95284,273.1581,272.8144,25,145.118.83.22,10.139.171.151,1,0
2013-11-12 15:16:20.051,267,26.7,52.17019,4.458027,8.735249,0,51.61231,9.5,5,1384265561,-0.1695251,-0.7565918,-0.5628662,12.25158,-29.38802,-23.8716,273.1956,272.8519,25,145.118.83.22,10.139.171.151,1,0
2013-11-12 15:16:20.213,268,26.8,52.17019,4.458027,8.735249,0,51.61231,9.5,5,1384265561,-0.1864014,-0.844574,-0.6026154,11.37033,-29.71708,-23.98644,273.1703,272.8266,25,145.118.83.22,10.139.171.151,1,0
2013-11-12 15:16:20.336,269,26.9,52.17019,4.458027,8.735249,0,51.61231,9.5,5,1384265561,-0.134903,-0.8542328,-0.5858307,12.1965,-29.99129,-23.5845,273.1428,272.7991,25,145.118.83.22,10.139.171.151,1,0
2013-11-12 15:16:20.520,270,27,52.17019,4.458027,8.735249,0,51.61231,9.5,5,1384265561,-0.1285706,-0.7547455,-0.5909271,12.47189,-29.82676,-23.52706,273.1199,272.7762,25,145.118.83.22,10.139.171.151,1,0
2013-11-12 15:16:20.684,271,27.1,52.17019,4.458027,8.735249,0,51.61231,9.5,5,1384265561,-0.1316986,-0.7914734,-0.5538635,11.59064,-29.4977,-23.98644,273.1581,272.8144,25,145.118.83.22,10.139.171.151,1,0
2013-11-12 15:16:20.792,272,27.2,52.17019,4.458027,8.735249,0,51.61231,9.5,5,1384265561,-0.1316986,-0.7914734,-0.5538635,13.46329,-29.16864,-24.21613,273.2601,272.9164,25,145.118.83.22,10.139.171.151,1,0
2013-11-12 15:16:21.016,273,27.3,52.17019,4.458027,8.735249,0,51.61231,9.5,5,1384265561,-0.1346283,-0.8370056,-0.5177307,13.13282,-30.26552,-23.52706,273.2102,272.8665,25,145.118.83.22,10.139.171.151,1,0
2013-11-12 15:16:21.122,274,27.4,52.17019,4.458027,8.735249,0,51.61231,9.5,5,1384265561,-0.170166,-0.8235321,-0.5110931,11.97618,-29.9913,-24.50324,273.1604,272.8167,25,145.118.83.22,10.139.171.151,1,0
2013-11-12 15:16:21.236,275,27.5,52.17019,4.458027,8.735249,0,51.61231,9.5,5,1384265561,-0.1873016,-0.8530121,-0.5665894,11.97618,-29.77193,-24.61808,273.2016,272.8578,25,145.118.83.22,10.139.171.151,1,0
2013-11-12 15:16:21.387,276,27.6,52.17019,4.458027,10.80274,0,51.61231,9.5,5,1384265562,-0.2099762,-0.8744354,-0.4974823,11.81095,-29.93646,-23.75675,273.204,272.8603,25,145.118.83.22,10.139.171.151,1,0
2013-11-12 15:16:21.511,277,27.7,52.17019,4.458027,10.80274,0,51.61231,9.5,5,1384265562,-0.2144165,-0.8955078,-0.4604492,11.92111,-29.93645,-24.56066,273.1707,272.827,25,145.118.83.22,10.139.171.151,1,0
2013-11-12 15:16:21.618,278,27.8,52.17019,4.458027,10.80274,0,51.61231,9.5,5,1384265562,-0.1378937,-0.8735504,-0.458252,12.91251,-30.04614,-24.21613,273.164,272.8203,25,145.118.83.22,10.139.171.151,1,0
2013-11-12 15:16:21.794,279,27.9,52.17019,4.458027,10.80274,0,51.61231,9.5,5,1384265562,-0.2204437,-1.119797,-0.7451477,12.08634,-29.9913,-25.1923,273.1996,272.8558,25,145.118.83.22,10.139.171.151,1,0
2013-11-12 15:16:22.075,280,28,52.17019,4.458027,10.80274,0,51.61231,9.5,5,1384265562,-0.2752991,-0.8064728,-0.4765167,11.97618,-29.9913,-23.92902,273.284,272.9403,25,145.118.83.22,10.139.171.151,1,0
2013-11-12 15:16:22.201,281,28.1,52.17019,4.458027,10.80274,0,51.61231,9.5,5,1384265562,-0.1890259,-0.6581726,-0.5291138,11.75587,-30.21067,-24.73293,273.2689,272.9252,25,145.118.83.22,10.139.171.151,1,0
2013-11-12 15:16:22.408,282,28.2,52.17019,4.458027,10.80274,0,51.61231,9.5,5,1384265562,-0.2627106,-1.019226,-0.5236053,12.96759,-29.77192,-24.15871,273.2896,272.9458,25,145.118.83.22,10.139.171.151,1,0
2013-11-12 15:16:22.553,283,28.3,52.17019,4.458027,10.80274,0,51.61231,9.5,5,1384265562,-0.1922913,-0.8860779,-0.5597076,12.6922,-28.72989,-24.10128,273.3236,272.9799,25,145.118.83.22,10.139.171.151,1,0
2013-11-12 15:16:22.735,284,28.4,52.17019,4.458027,10.80274,0,51.61231,9.5,5,1384265562,-0.2059021,-0.9908295,-0.6101074,12.6922,-29.49771,-24.44582,273.4292,273.0855,25,145.118.83.22,10.139.171.151,1,0
2013-11-12 15:16:22.895,285,28.5,52.17019,4.458027,10.80274,0,51.61231,9.5,5,1384265562,-0.06433105,-0.7532501,-0.5011292,12.41681,-28.67505,-24.04386,273.4796,273.1359,25,145.118.83.22,10.139.171.151,5,0
2013-11-12 15:16:23.190,286,28.6,52.17019,4.458027,13.14226,0,51.61231,9.5,5,1384265563,-0.1668091,-0.7526398,-0.5521545,11.64572,-29.00411,-24.50324,273.7144,273.3706,25,145.118.83.22,10.139.171.151,5,0
2013-11-12 15:16:23.477,287,28.7,52.17019,4.458027,13.14226,0,51.61231,9.5,5,1384265563,-0.1402588,-0.9024353,-0.6324615,12.08634,-29.55255,-23.46964,273.7166,273.3729,25,145.118.83.22,10.139.171.151,5,0
2013-11-12 15:16:23.706,288,28.8,52.17019,4.458027,13.14226,0,51.61231,9.5,5,1384265563,-0.1498718,-0.8292236,-0.5548096,12.80236,-28.51051,-23.98644,273.7424,273.3987,25,145.118.83.22,10.139.171.151,1,0
2013-11-12 15:16:23.835,289,28.9,52.17019,4.458027,13.14226,0,51.61231,9.5,5,1384265563,-0.09030151,-0.8941498,-0.577774,13.02267,-28.6202,-24.10128,273.8446,273.5009,25,145.118.83.22,10.139.171.151,1,0
2013-11-12 15:16:24.310,290,29,52.17019,4.458027,13.14226,0,51.61231,9.5,5,1384265563,-0.1444092,-0.8568268,-0.5693207,13.73868,-30.21067,-24.27355,273.7833,273.4396,25,145.118.83.22,10.139.171.151,1,0
2013-11-12 15:16:24.495,291,29.1,52.17019,4.458027,13.14226,0,51.61231,9.5,5,1384265563,-0.2524261,-0.9975433,-0.5888519,13.24298,-30.04614,-23.29739,273.6311,273.2874,25,145.118.83.22,10.139.171.151,1,0
2013-11-12 15:16:24.694,292,29.2,52.17019,4.458027,13.14226,0,51.61231,9.5,5,1384265563,-0.1487427,-0.8548279,-0.4641876,12.52697,-29.77193,-23.3548,273.6076,273.2639,25,145.118.83.22,10.139.171.151,1,0
2013-11-12 15:16:24.845,293,29.3,52.17019,4.458027,13.14226,0,51.61231,9.5,5,1384265563,-0.1487427,-0.8548279,-0.4641876,12.30665,-29.77192,-24.27355,273.6298,273.2861,25,145.118.83.22,10.139.171.151,1,0
2013-11-12 15:16:25.092,294,29.4,52.17019,4.458027,15.05241,0,51.61231,9.5,5,1384265564,-0.09474182,-0.9217682,-0.5085907,12.58204,-28.94927,-23.98644,273.7332,273.3895,25,145.118.83.22,10.139.171.151,1,0
2013-11-12 15:16:25.251,295,29.5,52.17019,4.458027,15.05241,0,51.61231,9.5,5,1384265564,-0.07974243,-0.771225,-0.5790253,13.57345,-29.38802,-23.75675,273.7787,273.435,25,145.118.83.22,10.139.171.151,1,0
2013-11-12 15:16:25.413,296,29.6,52.17019,4.458027,15.05241,0,51.61231,9.5,5,1384265564,-0.06373596,-0.8057556,-0.5788727,12.47189,-30.37521,-23.29739,273.7086,273.3648,25,145.118.83.22,10.139.171.151,1,0
2013-11-12 15:16:25.530,297,29.7,52.17019,4.458027,15.05241,0,51.61231,9.5,5,1384265564,-0.1102448,-0.8480225,-0.6013336,12.80236,-30.15583,-23.75675,273.6938,273.35,25,145.118.83.22,10.139.171.151,1,0
2013-11-12 15:16:25.740,298,29.8,52.17019,4.458027,15.05241,0,51.61231,9.5,5,1384265564,-0.09378052,-0.8283844,-0.5536041,12.41681,-29.22348,-24.50324,273.7052,273.3615,25,145.118.83.22,10.139.171.151,1,0
2013-11-12 15:16:26.046,299,29.9,52.17019,4.458027,15.05241,0,51.61231,9.5,5,1384265564,-0.1314545,-0.7714233,-0.4993896,11.97618,-29.22348,-24.38839,273.7432,273.3995,25,145.118.83.22,10.139.171.151,1,0
2013-11-12 15:16:26.195,300,30,52.17019,4.458027,15.05241,0,51.61231,9.5,5,1384265564,-0.2147064,-0.9079742,-0.5441437,12.47189,-29.71708,-23.64191,273.7501,273.4064,25,145.118.83.22,10.139.171.151,1,0
2013-11-12 15:16:26.325,301,30.1,52.17019,4.458027,15.05241,0,51.61231,9.5,5,1384265564,-0.2316132,-0.8725739,-0.5579376,12.41681,-29.77192,-23.81417,273.654,273.3103,25,145.118.83.22,10.139.171.151,1,0
2013-11-12 15:16:26.537,302,30.2,52.17019,4.458027,15.05241,0,51.61231,9.5,5,1384265564,-0.2787018,-0.8025055,-0.5845947,12.96759,-29.22349,-24.50324,273.6441,273.3004,25,145.118.83.22,10.139.171.151,1,0
2013-11-12 15:16:26.711,303,30.3,52.17019,4.458027,16.46264,0,51.61231,9.5,5,1384265565,-0.1676941,-0.8489838,-0.5090637,12.41681,-28.78474,-24.38839,273.6953,273.3515,25,145.118.83.22,10.139.171.151,1,0
2013-11-12 15:16:26.824,304,30.4,52.17019,4.458027,16.46264,0,51.61231,9.5,5,1384265565,-0.2175293,-0.9004822,-0.5870056,12.80236,-29.38802,-24.21613,273.7314,273.3876,25,145.118.83.22,10.139.171.151,1,0
2013-11-12 15:16:27.054,305,30.5,52.17019,4.458027,16.46264,0,51.61231,9.5,5,1384265565,-0.3167877,-0.757782,-0.5877686,12.58204,-29.71708,-23.75675,273.7227,273.379,25,145.118.83.22,10.139.171.151,1,0
2013-11-12 15:16:27.171,306,30.6,52.17019,4.458027,16.46264,0,51.61231,9.5,5,1384265565,-0.2327271,-0.8199158,-0.571701,12.63712,-30.10098,-24.27355,273.6395,273.2957,25,145.118.83.22,10.139.171.151,1,0
2013-11-12 15:16:27.281,307,30.7,52.17019,4.458027,16.46264,0,51.61231,9.5,5,1384265565,-0.1940613,-0.7667694,-0.5551453,12.41681,-29.9913,-24.27355,273.6851,273.3414,25,145.118.83.22,10.139.171.151,1,0
2013-11-12 15:16:27.391,308,30.8,52.17019,4.458027,16.46264,0,51.61231,9.5,5,1384265565,-0.1520233,-0.8538666,-0.5839691,12.25158,-29.93645,-23.52706,273.6148,273.2711,25,145.118.83.22,10.139.171.151,1,0
2013-11-12 15:16:27.498,309,30.9,52.17019,4.458027,16.46264,0,51.61231,9.5,5,1384265565,-0.08120728,-0.827179,-0.6090546,12.1965,-29.9913,-24.38839,273.6051,273.2614,25,145.118.83.22,10.139.171.151,1,0
2013-11-12 15:16:27.618,310,31,52.17019,4.458027,16.46264,0,51.61231,9.5,5,1384265565,-0.08120728,-0.827179,-0.6090546,12.63712,-29.55255,-24.84777,273.6143,273.2706,25,145.118.83.22,10.139.171.151,1,0
2013-11-12 15:16:27.766,311,31.1,52.17019,4.458027,16.46264,0,51.61231,9.5,5,1384265565,-0.1517944,-0.7712097,-0.6260223,12.1965,-29.8816,-23.5845,273.6266,273.2829,25,145.118.83.22,10.139.171.151,1,0
2013-11-12 15:16:28.003,312,31.2,52.17019,4.458027,21.07124,0,51.61231,9.5,5,1384265566,-0.2142944,-0.8125305,-0.6875153,11.48048,-29.38802,-23.8716,273.6203,273.2766,25,145.118.83.22,10.139.171.151,1,0
2013-11-12 15:16:28.153,313,31.3,52.17019,4.458027,21.07124,0,51.61231,9.5,5,1384265566,-0.1034241,-0.7942963,-0.6978455,11.09493,-28.78474,-24.50324,273.7165,273.3728,25,145.118.83.22,10.139.171.151,1,0
2013-11-12 15:16:28.301,314,31.4,52.17019,4.458027,21.07124,0,51.61231,9.5,5,1384265566,-0.1587067,-0.7388611,-0.5229492,11.75587,-30.21067,-23.92902,273.7665,273.4228,25,145.118.83.22,10.139.171.151,1,0
2013-11-12 15:16:28.647,315,31.5,52.17019,4.458027,21.07124,0,51.61231,9.5,5,1384265566,-0.1427917,-0.9749756,-0.553421,12.80236,-29.82677,-24.56066,273.7849,273.4412,25,145.118.83.22,10.139.171.151,1,0
2013-11-12 15:16:29.112,316,31.6,52.17019,4.458027,21.07124,0,51.61231,9.5,5,1384265566,-0.174118,-0.8362732,-0.4127502,13.07775,-29.22349,-24.73293,273.743,273.3993,25,145.118.83.22,10.139.171.151,1,0
2013-11-12 15:16:29.279,317,31.7,52.17019,4.458027,21.07124,0,51.61231,9.5,5,1384265566,-0.1239014,-0.6444702,-0.273819,12.6922,-30.15583,-24.33097,273.7239,273.3802,25,145.118.83.22,10.139.171.151,1,0
2013-11-12 15:16:29.411,318,31.8,52.17019,4.458027,21.07124,0,51.61231,9.5,5,1384265566,-0.09129333,-0.6773529,-0.3797455,12.52697,-30.43005,-24.84777,273.6944,273.3507,25,145.118.83.22,10.139.171.151,1,0
2013-11-12 15:16:29.517,319,31.9,52.17019,4.458027,21.07124,0,51.61231,9.5,5,1384265566,-0.1061859,-0.8747711,-0.5243225,13.46329,-29.16864,-23.18253,273.6348,273.2911,25,145.118.83.22,10.139.171.151,1,0
2013-11-12 15:16:30.119,320,32,52.17019,4.458027,0,0,51.61231,11.27798,10,1384265567,-0.2132111,-0.7222595,-0.53685,12.08634,-29.55255,-23.92902,273.7074,273.3637,25,145.118.83.22,10.139.171.151,1,0
2013-11-12 15:16:30.564,321,32.1,52.17019,4.458027,0,0,51.61231,11.27798,10,1384265567,-0.1202698,-0.8673706,-0.6022949,12.63712,-29.44286,-24.15871,273.7122,273.3685,25,145.118.83.22,10.139.171.151,1,0
2013-11-12 15:16:30.814,322,32.2,52.17019,4.458027,0,0,51.61231,11.27798,10,1384265567,-0.1486969,-0.8567352,-0.6773987,12.58204,-29.27833,-23.8716,273.6623,273.3186,25,145.118.83.22,10.139.171.151,1,0
2013-11-12 15:16:31.062,323,32.3,52.17019,4.458027,0,0,51.61231,11.27798,10,1384265567,-0.2008667,-0.782196,-0.6553955,13.02267,-29.82677,-23.8716,273.6554,273.3117,25,145.118.83.22,10.139.171.151,1,0
2013-11-12 15:16:31.199,324,32.4,52.17019,4.458027,0,0,51.61231,11.27798,10,1384265567,-0.1450348,-0.8649445,-0.6053162,12.96759,-29.77192,-23.81417,273.5822,273.2385,25,145.118.83.22,10.139.171.151,1,0
2013-11-12 15:16:31.344,325,32.5,52.17019,4.458027,0,0,51.61231,11.27798,10,1384265567,-0.185257,-0.8617706,-0.5568085,11.15001,-29.60739,-23.98644,273.637,273.2932,25,145.118.83.22,10.139.171.151,1,0
2013-11-12 15:16:31.501,326,32.6,52.17019,4.458027,0,0,51.61231,11.27798,10,1384265567,-0.1630249,-0.7900391,-0.5734558,12.03126,-29.16864,-25.02004,273.8084,273.4647,25,145.118.83.22,10.139.171.151,1,0
2013-11-12 15:16:31.629,327,32.7,52.17019,4.458027,0,0,51.61231,11.8654,10,1384265568,-0.1667633,-0.8881989,-0.5187073,12.14142,-28.94927,-23.8716,273.8537,273.5099,25,145.118.83.22,10.139.171.151,1,0
2013-11-12 15:16:31.781,328,32.8,52.17019,4.458027,0,0,51.61231,11.8654,10,1384265568,-0.1934509,-0.6773987,-0.5047607,12.80236,-29.16864,-24.90519,273.9081,273.5644,25,145.118.83.22,10.139.171.151,1,0
2013-11-12 15:16:32.031,329,32.9,52.17019,4.458027,0,0,51.61231,11.8654,10,1384265568,-0.1316223,-0.8486633,-0.5001678,12.58204,-30.26551,-23.29739,273.8588,273.5151,25,145.118.83.22,10.139.171.151,1,0
2013-11-12 15:16:32.203,330,33,52.17019,4.458027,0,0,51.61231,11.8654,10,1384265568,-0.1006165,-0.8494415,-0.4133759,11.48048,-29.38802,-24.10128,273.8316,273.4879,25,145.118.83.22,10.139.171.151,1,0
2013-11-12 15:16:32.332,331,33.1,52.17019,4.458027,0,0,51.61231,11.8654,10,1384265568,-0.1408844,-0.8143463,-0.5110168,12.1965,-29.88161,-23.69933,273.8186,273.4749,25,145.118.83.22,10.139.171.151,1,0
2013-11-12 15:16:33.054,332,33.2,52.17019,4.458027,0,0,51.61231,11.8654,10,1384265568,-0.1481018,-0.8766174,-0.4962769,12.63712,-30.21067,-23.46964,273.4292,273.0855,25,145.118.83.22,10.139.171.151,1,0
2013-11-12 15:16:33.661,333,33.3,52.17019,4.458027,0,0,51.61231,12.35708,10,1384265569,-0.1456604,-0.7983398,-0.5879822,12.6922,-29.60739,-23.64191,273.4191,273.0754,25,145.118.83.22,10.139.171.151,1,0
2013-11-12 15:16:34.102,334,33.4,52.17019,4.458027,0,0,51.61231,12.35708,10,1384265569,-0.1517944,-0.8300934,-0.5450897,12.25158,-29.38802,-24.10128,273.2732,272.9295,25,145.118.83.22,10.139.171.151,1,0
2013-11-12 15:16:34.566,335,33.5,52.17019,4.458027,0,0,51.61231,12.35708,10,1384265569,-0.1355591,-0.7698212,-0.437088,12.25158,-29.16864,-24.21613,273.3125,272.9688,25,145.118.83.22,10.139.171.151,1,0
2013-11-12 15:16:35.046,336,33.6,52.17019,4.458027,0,0,51.61231,12.35708,10,1384265569,-0.1560974,-0.7215576,-0.5502319,12.36173,-30.04614,-23.29739,273.2775,272.9338,25,145.118.83.22,10.139.171.151,1,0
2013-11-12 15:16:35.269,337,33.7,52.17019,4.458027,0,0,51.61231,12.7608,10,1384265570,-0.1138153,-1.030533,-0.5814056,12.14142,-28.94927,-24.33097,273.3708,273.0271,25,145.118.83.22,10.139.171.151,1,0
2013-11-12 15:16:35.473,338,33.8,52.17019,4.458027,0,0,51.61231,12.7608,10,1384265570,-0.217865,-0.8381348,-0.6095581,11.64572,-28.89442,-24.15871,273.5488,273.2051,25,145.118.83.22,10.139.171.151,1,0
2013-11-12 15:16:35.639,339,33.9,52.17019,4.458027,0,0,51.61231,12.7608,10,1384265570,-0.1433868,-0.7626495,-0.6347809,12.41681,-29.22348,-24.04386,273.565,273.2213,25,145.118.83.22,10.139.171.151,1,0
2013-11-12 15:16:35.789,340,34,52.17019,4.458027,0,0,51.61231,12.7608,10,1384265570,-0.1128998,-0.8595581,-0.5867157,12.03126,-29.38801,-23.41222,273.5347,273.191,25,145.118.83.22,10.139.171.151,1,0
2013-11-12 15:16:36.022,341,34.1,52.17019,4.458027,0,0,51.61231,12.7608,10,1384265570,-0.1459656,-0.9060669,-0.6130219,11.86603,-29.00411,-24.27355,273.6553,273.3116,25,145.118.83.22,10.139.171.151,1,0
2013-11-12 15:16:36.154,342,34.2,52.17019,4.458027,0,0,51.61231,12.7608,10,1384265570,-0.1167755,-0.9079437,-0.5398712,11.53556,-30.32036,-23.01028,273.5331,273.1894,25,145.118.83.22,10.139.171.151,1,0
2013-11-12 15:16:36.319,343,34.3,52.17019,4.458027,0,0,51.61231,12.7608,10,1384265570,-0.1169891,-0.7038879,-0.4556885,13.02267,-30.70427,-24.10128,273.4616,273.1179,25,145.118.83.22,10.139.171.151,1,0
2013-11-12 15:16:36.491,344,34.4,52.17019,4.458027,0,0,51.61231,12.7608,10,1384265570,-0.1232452,-0.8390656,-0.503067,12.25158,-30.04614,-24.10128,273.3618,273.018,25,145.118.83.22,10.139.171.151,1,0
2013-11-12 15:16:36.603,345,34.5,52.17019,4.458027,0,0,51.61231,12.7608,10,1384265570,-0.1842346,-0.9767761,-0.6285553,12.25158,-30.04614,-24.56066,273.3995,273.0558,25,145.118.83.22,10.139.171.151,1,0
2013-11-12 15:16:36.802,346,34.6,52.17019,4.458027,0,0,51.61231,12.75517,10,1384265571,-0.05914307,-0.6477661,-0.2793884,12.14142,-29.71708,-24.21613,273.4704,273.1266,25,145.118.83.22,10.139.171.151,1,0
2013-11-12 15:16:37.041,347,34.7,52.17019,4.458027,0,0,51.61231,12.75517,10,1384265571,-0.1799316,-0.8648682,-0.4564972,12.03126,-30.15583,-23.75675,273.5016,273.1579,25,145.118.83.22,10.139.171.151,1,0
2013-11-12 15:16:37.145,348,34.8,52.17019,4.458027,0,0,51.61231,12.75517,10,1384265571,-0.2102966,-1.104477,-0.5426331,12.52697,-29.22348,-22.78059,273.4061,273.0624,25,145.118.83.22,10.139.171.151,1,0
2013-11-12 15:16:37.271,349,34.9,52.17019,4.458027,0,0,51.61231,12.75517,10,1384265571,-0.1767426,-0.5798187,-0.4825592,12.63712,-29.00411,-23.81417,273.4355,273.0918,25,145.118.83.22,10.139.171.151,1,0
2013-11-12 15:16:37.548,350,35,52.17019,4.458027,0,0,51.61231,12.75517,10,1384265571,-0.1752014,-0.8761292,-0.6102905,11.86603,-29.44286,-23.46964,273.4135,273.0698,25,145.118.83.22,10.139.171.151,1,0
2013-11-12 15:16:38.126,351,35.1,52.17019,4.458027,0,0,51.61231,12.31696,10,1384265572,-0.1200714,-0.8509674,-0.515686,12.30665,-29.1138,-23.5845,273.5871,273.2434,25,145.118.83.22,10.139.171.151,1,0
2013-11-12 15:16:38.845,352,35.2,52.17019,4.458027,0,0,51.61231,12.31696,10,1384265572,-0.06056213,-0.8335419,-0.5125885,12.14142,-28.94927,-24.10128,273.6273,273.2835,25,0.0.0.0,10.139.171.151,1,0
2013-11-12 15:16:39.607,353,35.3,52.17019,4.458027,0,0,51.61231,12.31696,10,1384265572,-0.1114349,-0.817688,-0.4894562,11.97618,-29.44286,-24.38839,273.7366,273.3929,25,0.0.0.0,10.139.171.151,1,0
2013-11-12 15:16:40.795,354,35.4,52.17019,4.458027,0,0,51.61231,12.31696,10,1384265572,-0.09156799,-0.8878937,-0.5388489,12.08634,-29.33317,-24.50324,273.8731,273.5294,25,0.0.0.0,10.139.171.151,1,0
2013-11-12 15:16:41.453,355,35.5,52.17019,4.458027,0,0,51.61231,11.94713,10,1384265573,-0.08569336,-0.8033295,-0.575058,12.25158,-29.16864,-24.90519,273.8033,273.4596,25,0.0.0.0,10.139.171.151,1,0
2013-11-12 15:16:41.750,356,35.6,52.17019,4.458027,0,0,51.61231,11.94713,10,1384265573,-0.0715332,-0.7679443,-0.5196075,13.29806,-29.1138,-25.1923,273.8842,273.5405,25,0.0.0.0,10.139.171.151,1,0
2013-11-12 15:16:42.502,357,35.7,52.17019,4.458027,0,0,51.61231,11.94713,10,1384265573,-0.07421875,-0.8428802,-0.6031647,11.97618,-29.66224,-24.27355,273.9098,273.5661,25,0.0.0.0,10.139.171.151,1,0
2013-11-12 15:16:43.703,358,35.8,52.17019,4.458027,0,0,51.61231,11.94713,10,1384265573,-0.179184,-0.9429321,-0.6578369,12.52697,-30.10099,-23.92902,273.8342,273.4904,25,0.0.0.0,10.139.171.151,1,0
