time,timestamp,recordtime,lat,long,alt,speed,course,verticalAccuracy,horizontalAccuracy,locTimeStamp,accelerationX,accelerationY,accelerationZ,HeadingX,HeadingY,HeadingZ,TrueHeading,MagneticHeading,HeadingAccuracy,en0,pdp_ip0,DeviceOrientation,Event
2013-11-12 15:19:15.135,1,0.1,52.17027,4.457278,0,2.424059,286.116,11.67272,10,1384265675,-0.1858521,-0.867157,-0.6122894,15.63877,-22.52876,-16.92382,271.6378,271.2941,25,0.0.0.0,10.139.171.151,5,0
2013-11-12 15:19:15.537,2,0.2,52.17027,4.457278,0,2.424059,286.116,11.67272,10,1384265675,-0.1282196,-0.6591949,-0.5093994,11.45283,-22.85783,-21.63241,279.1849,278.8412,25,0.0.0.0,10.139.171.151,5,0
2013-11-12 15:19:15.979,3,0.3,52.17027,4.457278,0,2.424059,286.116,11.67272,10,1384265675,-0.1667938,-0.7414398,-0.610611,8.20322,-23.13204,-22.83826,278.6422,278.2985,25,0.0.0.0,10.139.171.151,5,0
2013-11-12 15:19:16.355,4,0.4,52.17028,4.457228,0,2.533962,289.8619,11.59386,10,1384265676,-0.1482697,-0.7977905,-0.6415405,10.24111,-31.52312,-11.75585,240.8584,240.5147,25,0.0.0.0,10.139.171.151,5,0
2013-11-12 15:19:16.642,5,0.5,52.17028,4.457228,0,2.533962,289.8619,11.59386,10,1384265676,-0.1495209,-0.7523956,-0.5949249,14.09658,-32.40063,-6.587883,233.5426,233.1989,25,0.0.0.0,10.139.171.151,5,0
2013-11-12 15:19:16.836,6,0.6,52.17028,4.457228,0,2.533962,289.8619,11.59386,10,1384265676,-0.1205902,-0.7275696,-0.5948639,18.8333,-31.41344,-4.865227,235.8607,235.517,25,0.0.0.0,10.139.171.151,5,0
2013-11-12 15:19:17.163,7,0.7,52.17028,4.457228,0,2.533962,289.8619,11.59386,10,1384265676,-0.1417542,-0.8602295,-0.7231293,21.42197,-28.17765,-3.544518,241.7475,241.4038,25,0.0.0.0,10.139.171.151,1,0
2013-11-12 15:19:17.356,8,0.8,52.17028,4.457228,0,2.533962,289.8619,11.59386,10,1384265676,-0.1435547,-0.7604675,-0.6094666,22.46846,-25.81937,-5.898819,249.6483,249.3046,25,0.0.0.0,10.139.171.151,1,0
2013-11-12 15:19:17.601,9,0.9,52.17028,4.457228,0,2.533962,289.8619,11.59386,10,1384265676,-0.200592,-0.8434753,-0.6221313,20.92627,-24.17406,-7.966003,249.864,249.5202,25,0.0.0.0,10.139.171.151,1,0
2013-11-12 15:19:17.903,10,1,52.17028,4.457228,0,2.533962,289.8619,11.59386,10,1384265676,-0.1301727,-0.7411957,-0.7185211,19.16377,-22.74812,-11.98553,257.7688,257.4251,25,0.0.0.0,10.139.171.151,1,0
2013-11-12 15:19:18.196,11,1.1,52.17028,4.457228,0,2.533962,289.8619,11.59386,10,1384265676,-0.2173615,-0.8895721,-0.6775818,13.27041,-21.04796,-18.24452,269.4687,269.125,25,0.0.0.0,10.139.171.151,1,0
2013-11-12 15:19:18.437,12,1.2,52.17029,4.457176,0,2.658967,276.5023,11.48112,10,1384265677,-0.2286224,-0.8094025,-0.4811554,12.33408,-22.74812,-20.36913,269.5226,269.1789,25,0.0.0.0,10.139.171.151,1,0
2013-11-12 15:19:19.117,13,1.3,52.17029,4.457176,0,2.658967,276.5023,11.48112,10,1384265677,-0.01965332,-0.7100525,-0.7094116,11.45283,-25.27094,-18.64648,264.6167,264.273,25,0.0.0.0,10.139.171.151,1,0
2013-11-12 15:19:19.316,14,1.4,52.17029,4.457176,0,2.658967,276.5023,11.48112,10,1384265677,-0.1437531,-0.7339783,-0.4898071,12.66455,-29.8778,-13.47851,248.6423,248.2986,25,0.0.0.0,10.139.171.151,1,0
2013-11-12 15:19:19.508,15,1.5,52.17029,4.457176,0,2.658967,276.5023,11.48112,10,1384265677,-0.167099,-0.8958893,-0.6170044,19.43916,-34.10078,-5.496864,234.532,234.1883,25,0.0.0.0,10.139.171.151,1,0
2013-11-12 15:19:19.672,16,1.6,52.17029,4.457176,0,2.658967,276.5023,11.48112,10,1384265677,-0.1668854,-0.8039093,-0.4945679,22.63369,-32.2361,-1.821861,235.6539,235.3102,25,0.0.0.0,10.139.171.151,1,0
2013-11-12 15:19:19.829,17,1.7,52.17029,4.457176,0,2.658967,276.5023,11.48112,10,1384265677,-0.09147644,-0.6694794,-0.5939484,24.89189,-29.65844,-1.534752,240.6017,240.258,25,0.0.0.0,10.139.171.151,1,0
2013-11-12 15:19:20.098,18,1.8,52.17029,4.457176,0,2.658967,276.5023,11.48112,10,1384265677,-0.1282959,-0.8561401,-0.5653687,26.48916,-22.80297,-4.463272,256.8089,256.4651,25,0.0.0.0,10.139.171.151,1,0
2013-11-12 15:19:20.229,19,1.9,52.17029,4.457127,0,2.768733,274.7877,11.36612,10,1384265678,-0.04075623,-0.7327271,-0.5565796,24.94697,-20.71891,-6.415611,261.8518,261.5081,25,0.0.0.0,10.139.171.151,1,0
2013-11-12 15:19:20.387,20,2,52.17029,4.457127,0,2.768733,274.7877,11.36612,10,1384265678,-0.07939148,-0.8587646,-0.641098,17.95205,-19.23812,-16.69413,276.4853,276.1416,25,0.0.0.0,10.139.171.151,1,0
2013-11-12 15:19:20.682,21,2.1,52.17029,4.457127,0,2.768733,274.7877,11.36612,10,1384265678,-0.1169281,-0.8880005,-0.6061249,14.5372,-20.77375,-20.36913,278.5999,278.2562,25,0.0.0.0,10.139.171.151,1,0
2013-11-12 15:19:20.937,22,2.2,52.17029,4.457127,0,2.768733,274.7877,11.36612,10,1384265678,-0.1659546,-0.7889099,-0.5627594,11.39775,-22.91265,-22.95312,276.5826,276.2389,25,0.0.0.0,10.139.171.151,1,0
2013-11-12 15:19:21.190,23,2.3,52.17029,4.457127,0,2.768733,274.7877,11.36612,10,1384265678,-0.0247345,-0.8382721,-0.6331635,15.30982,-18.62514,-25.27956,282.5637,282.22,25,0.0.0.0,10.139.171.151,1,0
2013-11-12 15:19:21.396,24,2.4,52.17029,4.457127,0,2.768733,274.7877,11.36612,10,1384265678,-0.1475067,-0.837616,-0.6122284,16.19103,-21.58666,-21.71972,270.6952,270.3515,25,0.0.0.0,10.139.171.151,1,0
2013-11-12 15:19:21.568,25,2.5,52.17029,4.457127,0,2.768733,274.7877,11.36612,10,1384265678,-0.2004547,-0.7662354,-0.614563,21.64354,-23.83523,-16.60963,262.4412,262.0975,25,0.0.0.0,10.139.171.151,1,0
2013-11-12 15:19:21.698,26,2.6,52.17029,4.457127,0,2.768733,274.7877,11.36612,10,1384265678,-0.184082,-0.8911591,-0.6696625,25.16839,-22.84806,-12.36078,261.3397,260.996,25,0.0.0.0,10.139.171.151,1,0
2013-11-12 15:19:21.803,27,2.7,52.1703,4.457064,0,2.8872,284.1851,11.2597,10,1384265679,-0.2135315,-0.8383789,-0.5180359,27.86711,-22.1351,-11.26987,263.4633,263.1196,25,0.0.0.0,10.139.171.151,1,0
2013-11-12 15:19:22.083,28,2.8,52.1703,4.457064,0,2.8872,284.1851,11.2597,10,1384265679,-0.1876678,-0.7925415,-0.5793762,27.59173,-18.02187,-11.78661,271.6149,271.2712,25,0.0.0.0,10.139.171.151,1,0
2013-11-12 15:19:22.287,29,2.9,52.1703,4.457064,0,2.8872,284.1851,11.2597,10,1384265679,-0.1377869,-0.8980255,-0.5711212,26.38006,-16.04752,-15.80579,281.9364,281.5927,25,0.0.0.0,10.139.171.151,1,0
2013-11-12 15:19:22.432,30,3,52.1703,4.457064,0,2.8872,284.1851,11.2597,10,1384265679,-0.1454468,-0.7932281,-0.4526672,22.24937,-15.44425,-20.22688,288.0841,287.7404,25,0.0.0.0,10.139.171.151,1,0
2013-11-12 15:19:22.613,31,3.1,52.1703,4.457064,0,2.8872,284.1851,11.2597,10,1384265679,-0.1222382,-0.9428406,-0.6303406,17.45778,-16.37658,-26.60014,294.1032,293.7595,25,0.0.0.0,10.139.171.151,1,0
2013-11-12 15:19:22.753,32,3.2,52.1703,4.457064,0,2.8872,284.1851,11.2597,10,1384265679,-0.1117554,-0.7460327,-0.5636444,14.15323,-16.92501,-30.04515,293.8156,293.4719,25,0.0.0.0,10.139.171.151,1,0
2013-11-12 15:19:22.902,33,3.3,52.1703,4.457064,0,2.8872,284.1851,11.2597,10,1384265679,-0.1783295,-0.7849121,-0.579361,12.6111,-16.70564,-31.19348,293.138,292.7943,25,0.0.0.0,10.139.171.151,1,0
2013-11-12 15:19:23.071,34,3.4,52.1703,4.457064,0,2.8872,284.1851,11.2597,10,1384265679,-0.09194946,-0.7610321,-0.6686859,11.12406,-18.51546,-26.7724,284.8001,284.4564,25,0.0.0.0,10.139.171.151,1,0
2013-11-12 15:19:23.190,35,3.5,52.1703,4.457064,0,2.8872,284.1851,11.2597,10,1384265679,-0.161972,-0.8724213,-0.6024475,13.65755,-22.02541,-18.73405,265.9738,265.6301,25,0.0.0.0,10.139.171.151,1,0
2013-11-12 15:19:23.352,36,3.6,52.17031,4.456993,0,3.027455,291.7322,9.330475,10,1384265680,-0.1877594,-0.7615509,-0.50354,15.86058,-24.10944,-14.8297,257.8895,257.5457,25,0.0.0.0,10.139.171.151,1,0
2013-11-12 15:19:23.468,37,3.7,52.17031,4.456993,0,3.027455,291.7322,9.330475,10,1384265680,-0.157547,-0.8765717,-0.5118866,19.99127,-24.38365,-11.44212,253.8176,253.4739,25,0.0.0.0,10.139.171.151,1,0
2013-11-12 15:19:23.591,38,3.8,52.17031,4.456993,0,3.027455,291.7322,9.330475,10,1384265680,-0.16922,-0.9206543,-0.6568756,21.42324,-25.37084,-9.489944,252.3964,252.0526,25,0.0.0.0,10.139.171.151,1,0
2013-11-12 15:19:23.698,39,3.9,52.17031,4.456993,0,3.027455,291.7322,9.330475,10,1384265680,-0.2641754,-0.6809845,-0.4076691,23.84657,-24.49335,-8.571281,254.5969,254.2531,25,0.0.0.0,10.139.171.151,1,0
2013-11-12 15:19:23.865,40,4,52.17031,4.456993,0,3.027455,291.7322,9.330475,10,1384265680,-0.2963257,-0.9141998,-0.5473633,24.50748,-22.08026,-7.997108,258.561,258.2173,25,0.0.0.0,10.139.171.151,1,0
2013-11-12 15:19:24.211,41,4.1,52.17031,4.456993,0,3.027455,291.7322,9.330475,10,1384265680,-0.1539917,-0.6604156,-0.4832153,26.93082,-17.25408,-12.01628,273.5673,273.2236,25,0.0.0.0,10.139.171.151,1,0
2013-11-12 15:19:24.357,42,4.2,52.17031,4.456993,0,3.027455,291.7322,9.330475,10,1384265680,-0.1676636,-0.9171906,-0.5955353,23.68135,-11.93431,-21.37522,292.5378,292.194,25,0.0.0.0,10.139.171.151,1,0
2013-11-12 15:19:24.484,43,4.3,52.17031,4.456993,0,3.027455,291.7322,9.330475,10,1384265680,-0.1083374,-0.6893005,-0.5511169,17.56793,-13.19569,-30.15999,299.3574,299.0136,25,0.0.0.0,10.139.171.151,1,0
2013-11-12 15:19:24.628,44,4.4,52.17031,4.456993,0,3.027455,291.7322,9.330475,10,1384265680,-0.1485596,-0.7747955,-0.6941833,14.64418,-15.25202,-34.85895,295.6529,295.3092,25,0.0.0.0,10.139.171.151,1,0
2013-11-12 15:19:24.778,45,4.5,52.17032,4.456942,0,3.150719,281.3934,9,5,1384265681,-0.2111664,-0.7805176,-0.4899445,14.97463,-20.62678,-31.18468,281.5157,281.172,25,0.0.0.0,10.139.171.151,1,0
2013-11-12 15:19:25.026,46,4.6,52.17032,4.456942,0,3.150719,281.3934,9,5,1384265681,-0.05032349,-0.8211365,-0.7384338,19.0807,-27.08518,-20.27286,261.2487,260.905,25,0.0.0.0,10.139.171.151,1,0
2013-11-12 15:19:25.156,47,4.7,52.17032,4.456942,0,3.150719,281.3934,9,5,1384265681,-0.04960632,-0.8384857,-0.6001434,23.6519,-29.22414,-10.57072,249.8928,249.5491,25,0.0.0.0,10.139.171.151,1,0
2013-11-12 15:19:25.269,48,4.8,52.17032,4.456942,0,3.150719,281.3934,9,5,1384265681,-0.1368256,-0.7710571,-0.5753326,28.27816,-28.12724,-6.666893,249.8598,249.5161,25,0.0.0.0,10.139.171.151,1,0
2013-11-12 15:19:25.385,49,4.9,52.17032,4.456942,0,3.150719,281.3934,9,5,1384265681,-0.1033783,-0.8569794,-0.604187,32.13339,-24.94625,-4.714981,254.7193,254.3755,25,0.0.0.0,10.139.171.151,1,0
2013-11-12 15:19:25.502,50,5,52.17032,4.456942,0,3.150719,281.3934,9,5,1384265681,-0.1169281,-0.7862091,-0.4807892,33.78196,-17.31159,-5.039642,265.1913,264.8476,25,0.0.0.0,10.139.171.151,1,0
2013-11-12 15:19:25.623,51,5.1,52.17032,4.456942,0,3.150719,281.3934,9,5,1384265681,-0.1178284,-0.8282471,-0.7026825,34.1124,-12.59503,-8.254501,277.0852,276.7415,25,0.0.0.0,10.139.171.151,1,0
2013-11-12 15:19:25.769,52,5.2,52.17032,4.456942,0,3.150719,281.3934,9,5,1384265681,-0.2513275,-0.9221649,-0.5734558,29.04563,-9.194733,-14.11015,288.6129,288.2692,25,0.0.0.0,10.139.171.151,1,0
2013-11-12 15:19:26.049,53,5.3,52.17032,4.45688,0,3.272125,276.8674,9,5,1384265682,-0.1229706,-0.6630402,-0.5989532,24.97019,-9.96254,-23.86954,297.5845,297.2408,25,0.0.0.0,10.139.171.151,1,0
2013-11-12 15:19:26.224,54,5.4,52.17032,4.45688,0,3.272125,276.8674,9,5,1384265682,-0.1315308,-0.7572479,-0.5529785,19.57298,-11.93692,-28.4622,299.5581,299.2144,25,0.0.0.0,10.139.171.151,1,0
2013-11-12 15:19:26.364,55,5.5,52.17032,4.45688,0,3.272125,276.8674,9,5,1384265682,-0.2319489,-0.7402039,-0.5086212,16.92945,-13.69191,-29.49557,295.7857,295.442,25,0.0.0.0,10.139.171.151,1,0
2013-11-12 15:19:26.515,56,5.6,52.17032,4.45688,0,3.272125,276.8674,9,5,1384265682,-0.1835938,-0.8081207,-0.5627899,14.50621,-14.56941,-29.26592,293.3084,292.9647,25,0.0.0.0,10.139.171.151,1,0
2013-11-12 15:19:26.657,57,5.7,52.17032,4.45688,0,3.272125,276.8674,9,5,1384265682,-0.1493073,-0.9629211,-0.6411133,14.1207,-14.95332,-28.63443,287.4098,287.0661,25,0.0.0.0,10.139.171.151,1,0
2013-11-12 15:19:26.804,58,5.8,52.17032,4.45688,0,3.272125,276.8674,9,5,1384265682,-0.1892395,-0.7371521,-0.5084686,15.05695,-16.65347,-25.47697,279.8459,279.5022,25,0.0.0.0,10.139.171.151,1,0
2013-11-12 15:19:27.018,59,5.9,52.17032,4.45688,0,3.272125,276.8674,9,5,1384265682,-0.1417847,-0.7611542,-0.5763702,18.80195,-20.27315,-18.47317,267.0687,266.725,25,0.0.0.0,10.139.171.151,1,0
2013-11-12 15:19:27.198,60,6,52.17032,4.45688,0,3.272125,276.8674,9,5,1384265682,-0.1130829,-0.8881683,-0.6168213,19.84835,-20.54737,-18.30094,265.0249,264.6812,25,0.0.0.0,10.139.171.151,1,0
2013-11-12 15:19:27.339,61,6.1,52.17032,4.45688,0,3.272125,276.8674,9,5,1384265682,-0.1420441,-0.8419495,-0.5391693,24.80497,-21.86361,-13.1342,259.3172,258.9735,25,0.0.0.0,10.139.171.151,1,0
2013-11-12 15:19:27.434,62,6.2,52.17032,4.45688,0,3.272125,276.8674,9,5,1384265682,-0.02900696,-0.7915344,-0.5514984,27.83401,-22.3572,-11.35455,259.7845,259.4408,25,0.0.0.0,10.139.171.151,1,0
2013-11-12 15:19:27.583,63,6.3,52.17032,4.45688,0,3.272125,276.8674,9,5,1384265682,-0.1055145,-0.8069763,-0.5906982,30.03695,-19.8344,-10.09157,264.1578,263.8141,25,0.0.0.0,10.139.171.151,1,0
2013-11-12 15:19:27.760,64,6.4,52.17032,4.45688,0,3.272125,276.8674,9,5,1384265682,-0.1169739,-0.8879242,-0.5973663,32.40512,-18.24393,-10.60825,269.9142,269.5705,25,0.0.0.0,10.139.171.151,1,0
2013-11-12 15:19:28.229,65,6.5,52.17033,4.456834,0,3.400125,283.7879,9,5,1384265684,-0.08184814,-0.8044128,-0.5809021,30.57399,-12.73187,-16.23332,283.9821,283.6383,25,0.0.0.0,10.139.171.151,1,0
2013-11-12 15:19:28.520,66,6.6,52.17033,4.456834,0,3.400125,283.7879,9,5,1384265684,-0.2000427,-0.844574,-0.5257568,27.48995,-13.28032,-19.56274,288.5849,288.2412,25,0.0.0.0,10.139.171.151,1,0
2013-11-12 15:19:28.679,67,6.7,52.17033,4.456834,0,3.400125,283.7879,9,5,1384265684,-0.1612854,-0.7029114,-0.5512848,21.98272,-12.4028,-27.82887,297.2288,296.8851,25,0.0.0.0,10.139.171.151,1,0
2013-11-12 15:19:28.827,68,6.8,52.17033,4.456834,0,3.400125,283.7879,9,5,1384265684,-0.1816406,-0.8016663,-0.6027069,18.78853,-14.15783,-28.51771,293.8136,293.4698,25,0.0.0.0,10.139.171.151,1,0
2013-11-12 15:19:29.056,69,6.9,52.17033,4.456834,0,3.400125,283.7879,9,5,1384265684,-0.1578827,-0.8936615,-0.563446,17.24651,-15.25472,-29.09175,290.6521,290.3084,25,0.0.0.0,10.139.171.151,1,0
2013-11-12 15:19:29.189,70,7,52.17033,4.456834,0,3.400125,283.7879,9,5,1384265684,-0.1180878,-0.9136963,-0.641098,16.42042,-18.49056,-25.47532,280.3127,279.9689,25,0.0.0.0,10.139.171.151,1,0
2013-11-12 15:19:29.317,71,7.1,52.17033,4.456834,0,3.400125,283.7879,9,5,1384265684,-0.06604004,-0.7918549,-0.5604095,16.36535,-20.6295,-22.43292,273.9392,273.5955,25,0.0.0.0,10.139.171.151,1,0
2013-11-12 15:19:29.420,72,7.2,52.17035,4.456779,0,3.516864,290.2351,9,5,1384265684,-0.123642,-0.8896484,-0.5866852,19.77983,-21.7264,-19.44793,268.2464,267.9027,25,0.0.0.0,10.139.171.151,1,0
2013-11-12 15:19:29.577,73,7.3,52.17035,4.456779,0,3.516864,290.2351,9,5,1384265684,-0.1041107,-0.7883148,-0.5751801,22.80881,-23.64597,-14.79823,262.1989,261.8552,25,0.0.0.0,10.139.171.151,1,0
2013-11-12 15:19:29.718,74,7.4,52.17035,4.456779,0,3.516864,290.2351,9,5,1384265684,-0.1747437,-0.8200531,-0.5675964,26.00299,-23.2072,-12.73169,261.9314,261.5877,25,0.0.0.0,10.139.171.151,1,0
2013-11-12 15:19:29.944,75,7.5,52.17035,4.456779,0,3.516864,290.2351,9,5,1384265684,-0.1853638,-0.7242279,-0.58638,29.3624,-19.6423,-9.689293,266.6093,266.2656,25,0.0.0.0,10.139.171.151,1,0
2013-11-12 15:19:30.146,76,7.6,52.17035,4.456779,0,3.516864,290.2351,9,5,1384265684,-0.1694336,-0.7315826,-0.4976959,33.5479,-14.37721,-10.26334,277.1992,276.8555,25,0.0.0.0,10.139.171.151,1,0
2013-11-12 15:19:30.303,77,7.7,52.17035,4.456779,0,3.516864,290.2351,9,5,1384265684,-0.1815643,-0.9241638,-0.6403503,32.39138,-12.56734,-15.02784,282.7657,282.422,25,0.0.0.0,10.139.171.151,1,0
2013-11-12 15:19:30.452,78,7.8,52.17035,4.456779,0,3.516864,290.2351,9,5,1384265684,-0.2679596,-0.9424744,-0.5851746,27.93052,-13.17063,-19.67754,289.1213,288.7776,25,0.0.0.0,10.139.171.151,1,0
2013-11-12 15:19:30.753,79,7.9,52.17035,4.456779,0,3.516864,290.2351,9,5,1384265684,-0.1743927,-0.6928406,-0.438446,22.31315,-13.06094,-27.25484,296.4256,296.0818,25,0.0.0.0,10.139.171.151,1,0
2013-11-12 15:19:31.109,80,8,52.17035,4.456709,0,3.638451,280.3457,9,5,1384265685,-0.1626587,-0.7908325,-0.4429932,17.63201,-15.09019,-30.06763,293.3591,293.0154,25,0.0.0.0,10.139.171.151,1,0
2013-11-12 15:19:31.308,81,8.1,52.17035,4.456709,0,3.638451,280.3457,9,5,1384265685,-0.1626587,-0.7908325,-0.4429932,13.77695,-14.76112,-30.29723,289.9333,289.5896,25,0.0.0.0,10.139.171.151,1,0
2013-11-12 15:19:31.506,82,8.2,52.17035,4.456709,0,3.638451,280.3457,9,5,1384265685,-0.1642914,-0.937912,-0.6091003,14.8784,-15.52895,-28.00108,285.7749,285.4312,25,0.0.0.0,10.139.171.151,1,0
2013-11-12 15:19:31.670,83,8.3,52.17035,4.456709,0,3.638451,280.3457,9,5,1384265685,-0.2269897,-0.8388062,-0.4869385,14.22887,-19.04648,-23.41612,273.302,272.9583,25,0.0.0.0,10.139.171.151,1,0
2013-11-12 15:19:32.052,84,8.400001,52.17035,4.456709,0,3.638451,280.3457,9,5,1384265685,-0.199707,-0.7648926,-0.574646,17.03751,-22.2824,-19.79996,263.3957,263.0519,25,0.0.0.0,10.139.171.151,1,0
2013-11-12 15:19:32.293,85,8.5,52.17035,4.456709,0,3.638451,280.3457,9,5,1384265685,-0.1601257,-0.8406372,-0.5441132,19.24036,-24.69564,-15.8968,256.9048,256.561,25,0.0.0.0,10.139.171.151,1,0
2013-11-12 15:19:32.543,86,8.6,52.17035,4.456709,0,3.638451,280.3457,9,5,1384265685,-0.07106018,-0.7828674,-0.5487823,21.77363,-25.57317,-11.99364,252.8941,252.5504,25,0.0.0.0,10.139.171.151,1,0
2013-11-12 15:19:32.847,87,8.7,52.17035,4.456709,0,3.638451,280.3457,9,5,1384265685,-0.3024445,-1.752655,-1.752441,33.22845,-14.27486,-10.27166,274.3137,273.9699,25,0.0.0.0,10.139.171.151,1,0
2013-11-12 15:19:33.169,88,8.8,52.17036,4.456626,0,3.743313,278.2539,9,5,1384265687,0.04919434,-0.6607666,-1.051971,32.01688,-10.87439,-17.15958,289.786,289.4423,25,0.0.0.0,10.139.171.151,1,0
2013-11-12 15:19:33.548,89,8.900001,52.17036,4.456626,0,3.743313,278.2539,9,5,1384265687,-0.4783325,-1.019073,-1.202057,27.61745,-11.00856,-21.67223,296.0874,295.7437,25,0.0.0.0,10.139.171.151,1,0
2013-11-12 15:19:33.850,90,9,52.17036,4.456626,0,3.743313,278.2539,9,5,1384265687,-0.6971283,-1.043976,-0.431778,22.05533,-9.966467,-26.66576,301.9822,301.6385,25,0.0.0.0,10.139.171.151,1,0
2013-11-12 15:19:34.392,91,9.1,52.17036,4.456626,0,3.743313,278.2539,9,5,1384265687,-0.3602753,-0.6325989,0.2002869,12.74842,-19.45504,-25.69002,279.5616,279.2179,25,0.0.0.0,10.139.171.151,1,0
2013-11-12 15:19:34.642,92,9.2,52.17038,4.456562,0,3.841881,289.7357,9,5,1384265687,-0.3192291,0.2398224,-0.1756439,16.21786,-22.47164,-21.61483,268.5288,268.1851,25,0.0.0.0,10.139.171.151,1,0
2013-11-12 15:19:34.806,93,9.3,52.17038,4.456562,0,3.841881,289.7357,9,5,1384265687,-0.07632446,-1.166473,-0.8369446,19.02645,-24.83008,-16.27691,264.5828,264.2391,25,0.0.0.0,10.139.171.151,1,0
2013-11-12 15:19:35.009,94,9.400001,52.17038,4.456562,0,3.841881,289.7357,9,5,1384265687,-0.2904053,-0.174057,-0.4957275,23.70744,-24.11706,-13.57925,263.6669,263.3232,25,0.0.0.0,10.139.171.151,1,0
2013-11-12 15:19:35.136,95,9.5,52.17038,4.456562,0,3.841881,289.7357,9,5,1384265687,-0.07363892,-0.60112,-0.8851471,27.28703,-22.3071,-9.618843,263.3372,262.9935,25,0.0.0.0,10.139.171.151,1,0
2013-11-12 15:19:35.234,96,9.6,52.17038,4.456562,0,3.841881,289.7357,9,5,1384265687,-0.2650146,-1.389923,-1.106796,31.47238,-20.00352,-8.356117,264.5459,264.2022,25,0.0.0.0,10.139.171.151,1,0
2013-11-12 15:19:35.384,97,9.7,52.17038,4.456562,0,3.841881,289.7357,9,5,1384265687,0.1954193,-0.7865295,-0.5866699,31.96802,-16.32876,-8.298714,270.6528,270.3091,25,0.0.0.0,10.139.171.151,1,0
2013-11-12 15:19:35.520,98,9.8,52.17038,4.456562,0,3.841881,289.7357,9,5,1384265687,0.03799438,-0.8283234,-0.47229,31.52745,-14.02517,-13.12007,283.4657,283.1219,25,0.0.0.0,10.139.171.151,1,0
2013-11-12 15:19:35.633,99,9.900001,52.17038,4.456562,0,3.841881,289.7357,9,5,1384265687,-0.1897583,-0.7725372,-0.422699,28.99421,-12.27006,-17.25266,290.7006,290.3569,25,0.0.0.0,10.139.171.151,1,0
2013-11-12 15:19:35.794,100,10,52.17038,4.456562,0,3.841881,289.7357,9,5,1384265687,-0.226532,-0.9994507,-0.4183502,25.02913,-11.72159,-22.87756,298.2328,297.8891,25,0.0.0.0,10.139.171.151,1,0
2013-11-12 15:19:36.084,101,10.1,52.17038,4.456497,0,3.889445,274.6498,9,5,1384265688,-0.200119,-0.9817657,-0.4572449,20.01772,-11.66674,-29.7078,303.2684,302.9247,25,0.0.0.0,10.139.171.151,1,0
2013-11-12 15:19:36.231,102,10.2,52.17038,4.456497,0,3.889445,274.6498,9,5,1384265688,-0.2410583,-0.8912659,-0.4819946,16.82363,-13.09277,-31.54452,300.7347,300.391,25,0.0.0.0,10.139.171.151,1,0
2013-11-12 15:19:36.374,103,10.3,52.17038,4.456497,0,3.889445,274.6498,9,5,1384265688,-0.2491913,-0.780777,-0.4930267,14.89617,-17.31601,-30.33918,292.4106,292.0669,25,0.0.0.0,10.139.171.151,1,0
2013-11-12 15:19:36.549,104,10.4,52.17038,4.456497,0,3.889445,274.6498,9,5,1384265688,-0.240448,-0.7476349,-0.4862518,14.89617,-18.19356,-30.1096,287.7729,287.4292,25,0.0.0.0,10.139.171.151,1,0
2013-11-12 15:19:36.682,105,10.5,52.17038,4.456497,0,3.889445,274.6498,9,5,1384265688,-0.3388519,-0.7803955,-0.4320374,15.50194,-19.56474,-25.57523,283.0634,282.7197,25,0.0.0.0,10.139.171.151,1,0
2013-11-12 15:19:36.820,106,10.6,52.17038,4.456497,0,3.889445,274.6498,9,5,1384265688,-0.2466736,-0.8044281,-0.5114441,15.9425,-20.33259,-25.57523,280.4596,280.1159,25,0.0.0.0,10.139.171.151,1,0
2013-11-12 15:19:37.023,107,10.7,52.17038,4.456497,0,3.889445,274.6498,9,5,1384265688,-0.2358856,-0.8164825,-0.5220795,17.70476,-23.07496,-20.06511,271.5996,271.2559,25,0.0.0.0,10.139.171.151,1,0
2013-11-12 15:19:37.153,108,10.8,52.17038,4.456497,0,3.889445,274.6498,9,5,1384265688,-0.07910156,-0.8453369,-0.5593567,18.09025,-24.00736,-18.74498,269.1342,268.7905,25,0.0.0.0,10.139.171.151,1,0
2013-11-12 15:19:37.362,109,10.9,52.17038,4.456497,0,3.889445,274.6498,9,5,1384265688,-0.003677368,-0.9454956,-0.5549164,19.74237,-25.32368,-16.10471,257.239,256.8953,25,0.0.0.0,10.139.171.151,1,0
2013-11-12 15:19:37.508,110,11,52.17038,4.456497,0,3.889445,274.6498,9,5,1384265688,0.005935669,-0.9420471,-0.5850525,18.58589,-25.8173,-14.4402,254.2518,253.9081,25,0.0.0.0,10.139.171.151,1,0
2013-11-12 15:19:37.691,111,11.1,52.17038,4.456497,0,3.889445,274.6498,9,5,1384265688,-0.2108154,-0.6016235,-1.245895,17.70476,-26.36578,-12.83308,250.8089,250.4651,25,0.0.0.0,10.139.171.151,1,0
2013-11-12 15:19:38.069,112,11.2,52.1704,4.456428,0,3.86086,294.0705,9,5,1384265690,-0.2108154,-0.6016235,-1.245895,18.97138,-27.07878,-10.36501,247.0304,246.6867,25,0.0.0.0,10.139.171.151,1,0
2013-11-12 15:19:38.418,113,11.3,52.1704,4.456428,0,3.86086,294.0705,9,5,1384265690,-0.05935669,-0.3742218,-1.381241,19.46701,-27.57241,-8.241318,243.4223,243.0786,25,0.0.0.0,10.139.171.151,1,0
2013-11-12 15:19:38.531,114,11.4,52.1704,4.456428,0,3.86086,294.0705,9,5,1384265690,0.0118103,-0.9517517,-0.9987793,17.86997,-27.84664,-7.609947,241.0318,240.6881,25,0.0.0.0,10.139.171.151,1,0
2013-11-12 15:19:38.703,115,11.5,52.1704,4.456428,0,3.86086,294.0705,9,5,1384265690,-0.119812,-0.8524017,-0.567276,17.75983,-29.49206,-5.08448,235.9386,235.5949,25,0.0.0.0,10.139.171.151,1,0
2013-11-12 15:19:38.826,116,11.6,52.1704,4.456428,0,3.86086,294.0705,9,5,1384265690,-0.03547668,-0.7571869,-0.5506592,19.08152,-29.05329,-0.6075134,229.6599,229.3162,25,0.0.0.0,10.139.171.151,1,0
2013-11-12 15:19:39.032,117,11.7,52.1704,4.456428,0,3.86086,294.0705,9,5,1384265690,-0.1115417,-1.004303,-0.3770142,17.2191,-31.86421,5.437904,218.0082,217.6645,25,0.0.0.0,10.139.171.151,1,0
2013-11-12 15:19:39.144,118,11.8,52.1704,4.456428,0,3.86086,294.0705,9,5,1384265690,-0.1608582,-0.8944244,-0.1136475,17.38431,-31.69966,9.282913,213.5696,213.2259,25,0.0.0.0,10.139.171.151,1,0
2013-11-12 15:19:39.461,119,11.9,52.17039,4.456388,0,3.643334,247.1821,9,5,1384265691,-0.2168579,-0.957962,-0.238327,16.50256,-31.78771,12.97434,208.7923,208.4485,25,0.0.0.0,10.139.171.151,1,0
2013-11-12 15:19:39.655,120,12,52.17039,4.456388,0,3.643334,247.1821,9,5,1384265691,-0.1652222,-0.9081268,-0.3414459,15.40117,-30.58104,13.43343,204.2777,203.934,25,0.0.0.0,10.139.171.151,1,0
2013-11-12 15:19:39.859,121,12.1,52.17039,4.456388,0,3.643334,247.1821,9,5,1384265691,-0.2776489,-0.9363861,-0.3651886,14.0795,-29.04528,14.58114,199.8662,199.5225,25,0.0.0.0,10.139.171.151,1,0
2013-11-12 15:19:40.117,122,12.2,52.17039,4.456388,0,3.643334,247.1821,9,5,1384265691,-0.1726685,-0.7878113,-0.3466644,13.03317,-28.00315,12.57264,195.9947,195.6509,25,0.0.0.0,10.139.171.151,1,0
2013-11-12 15:19:40.233,123,12.3,52.17039,4.456388,0,3.643334,247.1821,9,5,1384265691,-0.2253113,-0.6768188,-0.3997345,10.94053,-26.90617,7.867012,193.9858,193.6421,25,0.0.0.0,10.139.171.151,1,0
2013-11-12 15:19:40.386,124,12.4,52.17039,4.456388,0,3.643334,247.1821,9,5,1384265691,-0.2729645,-0.7597656,-0.38414,9.618858,-26.13829,6.489746,190.922,190.5783,25,0.0.0.0,10.139.171.151,1,0
2013-11-12 15:19:40.528,125,12.5,52.17039,4.456388,0,3.643334,247.1821,9,5,1384265691,-0.3145294,-1.016312,-0.639679,9.398581,-24.60253,3.850006,142.0157,141.672,26,0.0.0.0,10.139.171.151,1,0
2013-11-12 15:19:40.677,126,12.6,52.17039,4.456388,0,3.643334,247.1821,9,5,1384265691,-0.0637207,-0.7908173,-0.6577759,5.929197,-22.24403,2.530121,131.2087,130.865,26,0.0.0.0,10.139.171.151,1,0
2013-11-12 15:19:40.818,127,12.7,52.17039,4.456388,0,3.643334,247.1821,9,5,1384265691,-0.1306763,-0.6590118,-0.6009216,3.946693,-19.61128,-1.716423,119.8508,119.507,26,0.0.0.0,10.139.171.151,1,0
2013-11-12 15:19:41.029,128,12.8,52.17039,4.456388,0,3.643334,247.1821,9,5,1384265691,-0.1753845,-1.009247,-0.744278,4.607529,-17.41733,-3.782318,108.4289,108.0851,26,0.0.0.0,10.139.171.151,1,0
2013-11-12 15:19:41.145,129,12.9,52.17039,4.456388,0,3.643334,247.1821,9,5,1384265691,-0.1229553,-0.7387238,-0.648407,4.497387,-15.44277,-7.799324,101.7708,101.4271,26,0.0.0.0,10.139.171.151,1,0
2013-11-12 15:19:41.258,130,13,52.17039,4.456388,0,3.643334,247.1821,9,5,1384265691,0.1312714,-0.6340485,-0.6175079,5.819057,-15.44277,-12.04587,94.34987,94.00615,26,0.0.0.0,10.139.171.151,1,0
2013-11-12 15:19:41.383,131,13.1,52.17038,4.456399,0,3.423717,144.171,9.066378,10,1384265692,-0.04084778,-0.7951202,-0.6518402,4.827805,-15.55247,-17.89922,88.56078,88.21706,26,0.0.0.0,10.139.171.151,1,0
2013-11-12 15:19:41.516,132,13.2,52.17038,4.456399,0,3.423717,144.171,9.066378,10,1384265692,-0.03146362,-0.9426117,-0.7292938,3.451065,-16.3752,-20.48158,86.64313,86.29941,26,0.0.0.0,10.139.171.151,1,0
2013-11-12 15:19:41.626,133,13.3,52.17038,4.456399,0,3.423717,144.171,9.066378,10,1384265692,-0.1199036,-0.8568726,-0.5205231,4.222042,-18.67885,-21.85884,86.99769,86.65397,26,0.0.0.0,10.139.171.151,1,0
2013-11-12 15:19:41.737,134,13.4,52.17038,4.456399,0,3.423717,144.171,9.066378,10,1384265692,-0.1180115,-0.8363342,-0.622818,4.772736,-19.88553,-21.39975,88.97632,88.6326,26,0.0.0.0,10.139.171.151,1,0
2013-11-12 15:19:42.014,135,13.5,52.17038,4.456399,0,3.423717,144.171,9.066378,10,1384265692,-0.1520233,-0.7343445,-0.5501862,6.645102,-20.9825,-19.79295,92.76819,92.42447,26,0.0.0.0,10.139.171.151,1,0
2013-11-12 15:19:42.139,136,13.6,52.17038,4.456399,0,3.423717,144.171,9.066378,10,1384265692,-0.1031036,-0.7211914,-0.501358,8.021841,-21.69554,-18.58785,97.61512,97.2714,26,0.0.0.0,10.139.171.151,1,0
2013-11-12 15:19:42.274,137,13.7,52.17038,4.456399,0,3.423717,144.171,9.066378,10,1384265692,-0.0788269,-0.8244476,-0.516571,8.076912,-24.16374,-14.97254,107.5322,107.1884,26,0.0.0.0,10.139.171.151,1,0
2013-11-12 15:19:42.428,138,13.8,52.17038,4.456399,0,3.423717,144.171,9.066378,10,1384265692,-0.1001587,-0.8204193,-0.4436493,8.627607,-26.35769,-11.5294,117.7773,117.4336,26,0.0.0.0,10.139.171.151,1,0
2013-11-12 15:19:42.615,139,13.9,52.17037,4.456453,0,3.28796,95.01277,9.095392,10,1384265692,-0.1172791,-0.763092,-0.5188293,8.352259,-26.19315,-8.487946,123.0259,122.6822,26,0.0.0.0,10.139.171.151,1,0
2013-11-12 15:19:42.812,140,14,52.17037,4.456453,0,3.28796,95.01277,9.095392,10,1384265692,-0.1761475,-0.8023071,-0.5540161,9.178303,-24.60254,-3.036293,130.2362,129.8925,26,0.0.0.0,10.139.171.151,1,0
2013-11-12 15:19:43.184,141,14.1,52.17037,4.456453,0,3.28796,95.01277,9.095392,10,1384265692,-0.135788,-0.7749329,-0.5704803,8.462399,-22.13435,-3.323219,127.8502,127.5064,26,0.0.0.0,10.139.171.151,1,0
2013-11-12 15:19:43.416,142,14.2,52.17037,4.456453,0,3.28796,95.01277,9.095392,10,1384265692,-0.1491394,-0.7680817,-0.599762,5.929197,-20.92768,-2.978912,122.9757,122.6319,26,0.0.0.0,10.139.171.151,1,0
2013-11-12 15:19:43.595,143,14.3,52.17037,4.456453,0,3.28796,95.01277,9.095392,10,1384265692,-0.12677,-0.7918854,-0.5888977,4.1119,-19.00797,-4.643105,114.4516,114.1079,26,0.0.0.0,10.139.171.151,1,0
2013-11-12 15:19:43.754,144,14.4,52.17037,4.456453,0,3.28796,95.01277,9.095392,10,1384265692,-0.00617981,-0.8732147,-0.5628967,2.294605,-17.63674,-9.865204,98.51965,98.17593,26,0.0.0.0,10.139.171.151,1,0
2013-11-12 15:19:44.018,145,14.5,52.17037,4.456453,0,3.28796,95.01277,9.095392,10,1384265692,-0.001312256,-0.7951202,-0.5630798,0.9729347,-17.85614,-18.47308,86.18133,85.83761,26,0.0.0.0,10.139.171.151,1,0
2013-11-12 15:19:44.156,146,14.6,52.17037,4.456453,0,3.28796,95.01277,9.095392,10,1384265692,-0.05500793,-0.8193665,-0.5525055,3.230789,-17.80129,-21.85884,82.24728,81.90356,26,0.0.0.0,10.139.171.151,1,0
2013-11-12 15:19:44.345,147,14.7,52.17037,4.456453,0,3.28796,95.01277,9.095392,10,1384265692,-0.06404114,-0.8023682,-0.5311737,3.946693,-19.28221,-23.17871,83.96825,83.62453,26,0.0.0.0,10.139.171.151,1,0
2013-11-12 15:19:44.487,148,14.8,52.17037,4.456453,0,3.28796,95.01277,9.095392,10,1384265692,-0.05534363,-0.7561188,-0.5818787,6.149475,-21.47618,-20.53896,92.01295,91.66924,26,0.0.0.0,10.139.171.151,1,0
2013-11-12 15:19:44.628,149,14.9,52.17035,4.456507,0,3.277165,110.2149,9.042293,10,1384265693,0.04225159,-0.8385925,-0.5189819,7.361008,-23.12164,-18.3583,99.05404,98.71032,26,0.0.0.0,10.139.171.151,1,0
2013-11-12 15:19:44.777,150,15,52.17035,4.456507,0,3.277165,110.2149,9.042293,10,1384265693,-0.07389832,-0.7715607,-0.6052856,7.911703,-23.45074,-15.37424,105.6761,105.3323,26,0.0.0.0,10.139.171.151,1,0
2013-11-12 15:19:45.006,151,15.1,52.17035,4.456507,0,3.277165,110.2149,9.042293,10,1384265693,-0.2012939,-0.7804413,-0.5687714,7.195797,-23.94437,-9.463501,116.6949,116.3512,26,0.0.0.0,10.139.171.151,1,0
2013-11-12 15:19:45.126,152,15.2,52.17035,4.456507,0,3.277165,110.2149,9.042293,10,1384265693,-0.156311,-0.6566772,-0.6166229,6.259615,-22.90224,-6.536835,119.4235,119.0798,26,0.0.0.0,10.139.171.151,1,0
2013-11-12 15:19:45.237,153,15.3,52.17035,4.456507,0,3.277165,110.2149,9.042293,10,1384265693,-0.2096863,-0.98703,-0.6295929,5.984268,-20.10497,-6.479439,111.6393,111.2956,26,0.0.0.0,10.139.171.151,1,0
2013-11-12 15:19:45.358,154,15.4,52.17034,4.456562,0,3.289326,110.5378,9.025429,10,1384265694,-0.1356201,-0.8005219,-0.4837494,5.268362,-18.40465,-7.684547,102.151,101.8073,26,0.0.0.0,10.139.171.151,1,0
2013-11-12 15:19:45.514,155,15.5,52.17034,4.456562,0,3.289326,110.5378,9.025429,10,1384265694,-0.1279144,-0.9587097,-0.5592499,2.955441,-16.64949,-14.57085,89.19408,88.85036,26,0.0.0.0,10.139.171.151,5,0
2013-11-12 15:19:45.699,156,15.6,52.17034,4.456562,0,3.289326,110.5378,9.025429,10,1384265694,-0.06895447,-0.743103,-0.5780945,3.065582,-16.64949,-20.19465,81.2635,80.91978,26,0.0.0.0,10.139.171.151,5,0
2013-11-12 15:19:46.143,157,15.7,52.17034,4.456562,0,3.289326,110.5378,9.025429,10,1384265694,-0.06059265,-0.8456421,-0.6615143,4.717667,-19.94041,-22.60486,82.08465,81.74093,26,0.0.0.0,10.139.171.151,5,0
2013-11-12 15:19:46.389,158,15.8,52.17034,4.456562,0,3.289326,110.5378,9.025429,10,1384265694,-0.1191101,-0.7463684,-0.6181946,6.755241,-21.64074,-21.97361,90.3811,90.03738,26,0.0.0.0,10.139.171.151,5,0
2013-11-12 15:19:46.666,159,15.9,52.17034,4.456562,0,3.289326,110.5378,9.025429,10,1384265694,-0.1231995,-0.8176575,-0.6219025,9.288443,-23.39588,-13.59528,109.7419,109.3981,26,0.0.0.0,10.139.171.151,5,0
2013-11-12 15:19:46.932,160,16,52.17034,4.456562,0,3.289326,110.5378,9.025429,10,1384265694,-0.02323914,-0.8328247,-0.5659943,10.00435,-24.65741,-7.340225,118.1465,117.8028,26,0.0.0.0,10.139.171.151,1,0
2013-11-12 15:19:47.283,161,16.1,52.17034,4.456562,0,3.289326,110.5378,9.025429,10,1384265694,-0.1465759,-0.672287,-0.591217,9.784069,-23.77984,-6.995918,120.9833,120.6396,26,0.0.0.0,10.139.171.151,1,0
2013-11-12 15:19:47.451,162,16.2,52.17034,4.456562,0,3.289326,110.5378,9.025429,10,1384265694,-0.165802,-0.8685913,-0.6190186,6.92045,-20.70832,-4.930031,117.6511,117.3074,26,0.0.0.0,10.139.171.151,1,0
2013-11-12 15:19:47.693,163,16.3,52.17034,4.456562,0,3.289326,110.5378,9.025429,10,1384265694,-0.1813354,-0.6939392,-0.5767059,5.984268,-18.8983,-7.51239,106.6288,106.2851,26,0.0.0.0,10.139.171.151,1,0
2013-11-12 15:19:48.033,164,16.4,52.17034,4.456562,0,3.289326,110.5378,9.025429,10,1384265694,-0.111618,-0.9928894,-0.6291809,3.120647,-16.70435,-12.10326,90.70247,90.35875,26,0.0.0.0,10.139.171.151,1,0
2013-11-12 15:19:48.290,165,16.5,52.17033,4.456614,0,3.337076,104.6315,9.032324,10,1384265695,-0.2041931,-0.6393127,-0.4211578,2.845299,-17.52708,-20.19465,81.66031,81.31659,26,0.0.0.0,10.139.171.151,1,0
2013-11-12 15:19:48.601,166,16.6,52.17033,4.456614,0,3.337076,104.6315,9.032324,10,1384265695,-0.09721375,-0.9177704,-0.6108398,3.671345,-18.24012,-21.97361,79.28581,78.94209,26,0.0.0.0,10.139.171.151,1,0
2013-11-12 15:19:48.794,167,16.7,52.17033,4.456614,0,3.337076,104.6315,9.032324,10,1384265695,-0.1513672,-0.975708,-0.544693,5.323433,-19.55649,-25.76108,81.74966,81.40594,26,0.0.0.0,10.139.171.151,1,0
2013-11-12 15:19:49.016,168,16.8,52.17033,4.456614,0,3.337076,104.6315,9.032324,10,1384265695,-0.1557159,-0.6961823,-0.5522614,8.572538,-21.80529,-22.14577,91.16522,90.8215,26,0.0.0.0,10.139.171.151,1,0
2013-11-12 15:19:49.163,169,16.9,52.17033,4.456614,0,3.337076,104.6315,9.032324,10,1384265695,-0.09283447,-0.8535767,-0.6372681,11.05067,-23.72499,-16.23502,104.3505,104.0068,26,0.0.0.0,10.139.171.151,1,0
2013-11-12 15:19:49.323,170,17,52.17033,4.456614,0,3.337076,104.6315,9.032324,10,1384265695,-0.1473236,-0.8585815,-0.5518036,11.5463,-24.54773,-11.93109,113.3836,113.0399,26,0.0.0.0,10.139.171.151,1,0
2013-11-12 15:19:49.443,171,17.1,52.17033,4.456614,0,3.337076,104.6315,9.032324,10,1384265695,-0.149231,-0.7772369,-0.5315704,10.22462,-23.12167,-6.192513,123.5579,123.2141,26,0.0.0.0,10.139.171.151,1,0
2013-11-12 15:19:49.555,172,17.2,52.17033,4.456614,0,3.337076,104.6315,9.032324,10,1384265695,-0.1184692,-0.8747101,-0.5438538,7.801563,-23.56046,-5.274345,124.0782,123.7345,26,0.0.0.0,10.139.171.151,1,0
2013-11-12 15:19:49.686,173,17.3,52.17033,4.456614,0,3.337076,104.6315,9.032324,10,1384265695,-0.09773254,-0.7822723,-0.5420685,6.039335,-22.68287,-6.995918,121.0343,120.6906,26,0.0.0.0,10.139.171.151,1,0
2013-11-12 15:19:49.828,174,17.4,52.17033,4.456669,0,3.394963,98.42744,9.024545,10,1384265696,-0.1100769,-0.812851,-0.6024017,5.984268,-20.76316,-4.757866,115.6424,115.2986,26,0.0.0.0,10.139.171.151,1,0
2013-11-12 15:19:50.103,175,17.5,52.17033,4.456669,0,3.394963,98.42744,9.024545,10,1384265696,-0.09492493,-0.8578796,-0.5749512,3.891624,-18.24012,-6.93853,103.0328,102.6891,26,0.0.0.0,10.139.171.151,1,0
2013-11-12 15:19:50.270,176,17.6,52.17033,4.456669,0,3.394963,98.42744,9.024545,10,1384265696,-0.1527252,-0.784317,-0.5666351,3.395996,-17.52709,-9.97998,94.3712,94.02748,26,0.0.0.0,10.139.171.151,1,0
2013-11-12 15:19:50.446,177,17.7,52.17033,4.456669,0,3.394963,98.42744,9.024545,10,1384265696,-0.1304626,-0.8415527,-0.5790253,2.459812,-16.81405,-18.07137,83.93365,83.58993,26,0.0.0.0,10.139.171.151,1,0
2013-11-12 15:19:50.583,178,17.8,52.17033,4.456669,0,3.394963,98.42744,9.024545,10,1384265696,-0.1173401,-0.887207,-0.5185089,2.129398,-18.02073,-23.92473,82.73308,82.38936,26,0.0.0.0,10.139.171.151,1,0
2013-11-12 15:19:50.721,179,17.9,52.17033,4.456669,0,3.394963,98.42744,9.024545,10,1384265696,-0.1918182,-0.8272552,-0.5374451,2.845299,-18.73376,-24.78551,85.14526,84.80154,26,0.0.0.0,10.139.171.151,1,0
2013-11-12 15:19:50.857,180,18,52.17033,4.456669,0,3.394963,98.42744,9.024545,10,1384265696,-0.2090607,-0.9042206,-0.5470581,5.048084,-21.4762,-22.60486,90.92582,90.5821,26,0.0.0.0,10.139.171.151,1,0
2013-11-12 15:19:51.074,181,18.1,52.17033,4.456721,0,3.43814,102.8755,9,10,1384265697,-0.2296753,-0.7521973,-0.5319366,6.645102,-23.94439,-18.07137,98.25288,97.90916,26,0.0.0.0,10.139.171.151,1,0
2013-11-12 15:19:51.205,182,18.2,52.17033,4.456721,0,3.43814,102.8755,9,10,1384265697,-0.2541351,-0.8727112,-0.6222839,8.792816,-25.64471,-15.48901,108.5274,108.1837,26,0.0.0.0,10.139.171.151,1,0
2013-11-12 15:19:51.301,183,18.3,52.17033,4.456721,0,3.43814,102.8755,9,10,1384265697,-0.1223297,-0.8231201,-0.5751495,12.75783,-26.85138,-13.30836,115.5447,115.201,26,0.0.0.0,10.139.171.151,1,0
2013-11-12 15:19:51.419,184,18.4,52.17033,4.456721,0,3.43814,102.8755,9,10,1384265697,-0.1888123,-0.7501373,-0.5395966,13.14331,-27.78381,-6.708984,124.526,124.1823,26,0.0.0.0,10.139.171.151,1,0
2013-11-12 15:19:51.612,185,18.5,52.17033,4.456721,0,3.43814,102.8755,9,10,1384265697,-0.08641052,-0.8457642,-0.6226654,12.42741,-27.83866,-2.634598,128.0245,127.6808,26,0.0.0.0,10.139.171.151,1,0
2013-11-12 15:19:51.793,186,18.6,52.17033,4.456721,0,3.43814,102.8755,9,10,1384265697,-0.08842468,-0.7745209,-0.5313416,9.123234,-24.54773,-2.175507,124.5952,124.2515,26,0.0.0.0,10.139.171.151,5,0
2013-11-12 15:19:52.144,187,18.7,52.17033,4.456721,0,3.43814,102.8755,9,10,1384265697,-0.07228088,-0.8467102,-0.5885315,5.819057,-20.92771,-1.142563,115.6568,115.3131,26,0.0.0.0,10.139.171.151,5,0
2013-11-12 15:19:52.340,188,18.8,52.17033,4.456721,0,3.43814,102.8755,9,10,1384265697,-0.102066,-0.8418274,-0.5477753,4.001762,-16.26555,-4.069244,98.0286,97.68488,26,0.0.0.0,10.139.171.151,5,0
2013-11-12 15:19:52.779,189,18.9,52.17033,4.456721,0,3.43814,102.8755,9,10,1384265697,-0.1771088,-0.8433838,-0.5587616,3.230789,-15.49768,-8.889648,88.85755,88.51383,26,0.0.0.0,10.139.171.151,1,0
2013-11-12 15:19:53.084,190,19,52.17033,4.456778,0,3.500366,105.1433,9,10,1384265698,-0.2015991,-0.8097534,-0.5677032,1.688839,-15.93647,-17.15321,79.21356,78.86984,26,0.0.0.0,10.139.171.151,1,0
2013-11-12 15:19:53.381,191,19.1,52.17033,4.456778,0,3.500366,105.1433,9,10,1384265698,-0.2453156,-0.804245,-0.5971069,3.340927,-16.70435,-21.6293,77.46509,77.12137,26,0.0.0.0,10.139.171.151,5,0
2013-11-12 15:19:53.542,192,19.2,52.17033,4.456778,0,3.500366,105.1433,9,10,1384265698,-0.2335205,-0.7996826,-0.4977722,4.662598,-18.24012,-23.2361,79.09508,78.75136,26,0.0.0.0,10.139.171.151,5,0
2013-11-12 15:19:53.724,193,19.3,52.17033,4.456778,0,3.500366,105.1433,9,10,1384265698,-0.2000275,-0.8035583,-0.5268402,7.361008,-21.80529,-20.65373,86.74626,86.40254,26,0.0.0.0,10.139.171.151,5,0
2013-11-12 15:19:53.847,194,19.4,52.17033,4.456778,0,3.500366,105.1433,9,10,1384265698,-0.1255951,-0.8456116,-0.5838776,8.737747,-23.5056,-18.4157,97.85355,97.50983,26,0.0.0.0,10.139.171.151,1,0
2013-11-12 15:19:54.080,195,19.5,52.17033,4.456778,0,3.500366,105.1433,9,10,1384265698,-0.1638184,-0.9911194,-0.6566772,13.08824,-25.75441,-6.192513,118.0919,117.7482,26,0.0.0.0,10.139.171.151,1,0
2013-11-12 15:19:54.201,196,19.6,52.17033,4.456778,0,3.500366,105.1433,9,10,1384265698,-0.129303,-0.8989563,-0.5467529,13.08824,-24.54773,-1.372108,124.408,124.0643,26,0.0.0.0,10.139.171.151,1,0
2013-11-12 15:19:54.411,197,19.7,52.17033,4.456778,0,3.500366,105.1433,9,10,1384265698,-0.1188507,-0.7749023,-0.5314636,12.53755,-22.90226,1.038094,124.917,124.5732,26,0.0.0.0,10.139.171.151,1,0
2013-11-12 15:19:54.526,198,19.8,52.17033,4.456778,0,3.500366,105.1433,9,10,1384265698,-0.1595001,-0.9791412,-0.6187134,11.05067,-20.65347,2.817055,122.8518,122.508,26,0.0.0.0,10.139.171.151,1,0
2013-11-12 15:19:54.663,199,19.9,52.17031,4.456848,0,3.568506,105.2438,9,5,1384265699,-0.08900452,-0.7136536,-0.500351,10.22462,-16.10102,3.103981,115.7919,115.4482,26,0.0.0.0,10.139.171.151,1,0
2013-11-12 15:19:54.925,200,20,52.17031,4.456848,0,3.568506,105.2438,9,5,1384265699,-0.1135254,-0.6715088,-0.5404816,7.471146,-14.01677,1.72673,108.1808,107.8371,26,0.0.0.0,10.139.171.151,1,0
2013-11-12 15:19:55.096,201,20.1,52.17031,4.456848,0,3.568506,105.2438,9,5,1384265699,-0.02815247,-0.8240356,-0.5776978,5.213293,-11.76796,-4.643105,94.57634,94.23262,26,0.0.0.0,10.139.171.151,1,0
2013-11-12 15:19:55.209,202,20.2,52.17031,4.456848,0,3.568506,105.2438,9,5,1384265699,-0.1846313,-0.8032227,-0.5637817,3.395996,-12.59069,-21.22759,81.90196,81.55824,26,0.0.0.0,10.139.171.151,1,0
2013-11-12 15:19:55.303,203,20.3,52.17031,4.456848,0,3.568506,105.2438,9,5,1384265699,-0.2280273,-0.8647003,-0.5443115,4.827805,-16.53981,-24.32643,86.43559,86.09187,26,0.0.0.0,10.139.171.151,1,0
2013-11-12 15:19:55.405,204,20.4,52.17031,4.456848,0,3.568506,105.2438,9,5,1384265699,-0.2518005,-0.8232269,-0.5455017,7.801563,-18.62406,-22.60486,98.36763,98.02391,26,0.0.0.0,10.139.171.151,1,0
2013-11-12 15:19:55.564,205,20.5,52.17031,4.456848,0,3.568506,105.2438,9,5,1384265699,-0.2669373,-0.8230896,-0.5640564,9.50872,-20.98256,-17.49751,107.9612,107.6174,26,0.0.0.0,10.139.171.151,1,0
2013-11-12 15:19:55.769,206,20.6,52.17031,4.456919,0,3.641725,100.726,9,5,1384265700,-0.1902161,-0.8491364,-0.5763245,7.856634,-23.6153,-9.578278,122.4176,122.0739,26,0.0.0.0,10.139.171.151,1,0
2013-11-12 15:19:56.053,207,20.7,52.17031,4.456919,0,3.641725,100.726,9,5,1384265700,-0.1951447,-0.845871,-0.5500641,6.094406,-21.86014,-9.578278,119.8122,119.4685,26,0.0.0.0,10.139.171.151,1,0
2013-11-12 15:19:56.219,208,20.8,52.17031,4.456919,0,3.641725,100.726,9,5,1384265700,-0.1119995,-0.7436981,-0.5227509,3.836552,-19.72105,-9.865204,112.3842,112.0405,26,0.0.0.0,10.139.171.151,1,0
2013-11-12 15:19:56.453,209,20.9,52.17031,4.456919,0,3.641725,100.726,9,5,1384265700,-0.1146698,-0.7440033,-0.5626678,3.010509,-18.13043,-10.49644,103.7133,103.3696,26,0.0.0.0,10.139.171.151,1,0
2013-11-12 15:19:56.602,210,21,52.17031,4.456919,0,3.641725,100.726,9,5,1384265700,-0.06236267,-0.7907715,-0.5409393,0.4222374,-17.41739,-14.80038,93.66046,93.31674,26,0.0.0.0,10.139.171.151,1,0
2013-11-12 15:19:56.733,211,21.1,52.17031,4.456919,0,3.641725,100.726,9,5,1384265700,-0.04598999,-0.8390961,-0.5543823,0.5874481,-16.81405,-20.25203,85.81403,85.47031,26,0.0.0.0,10.139.171.151,1,0
2013-11-12 15:19:56.838,212,21.2,52.17031,4.456919,0,3.641725,100.726,9,5,1384265700,-0.04850769,-0.8527832,-0.5592194,2.239536,-19.11771,-24.38381,81.72733,81.38361,26,0.0.0.0,10.139.171.151,1,0
2013-11-12 15:19:57.059,213,21.3,52.17031,4.456919,0,3.641725,100.726,9,5,1384265700,-0.05021667,-0.8223114,-0.5437317,4.607529,-22.1344,-26.39231,85.40896,85.06524,26,0.0.0.0,10.139.171.151,1,0
2013-11-12 15:19:57.183,214,21.4,52.17031,4.456919,0,3.641725,100.726,9,5,1384265700,-0.04472351,-0.8462982,-0.5903625,7.526217,-23.17653,-26.56447,89.01266,88.66895,26,0.0.0.0,10.139.171.151,1,0
2013-11-12 15:19:57.297,215,21.5,52.17031,4.456919,0,3.641725,100.726,9,5,1384265700,-0.1684113,-0.8895569,-0.5683441,9.618858,-25.15108,-24.8429,98.64669,98.30297,26,0.0.0.0,10.139.171.151,1,0
2013-11-12 15:19:57.406,216,21.6,52.1703,4.456979,0,3.703403,99.78545,9,5,1384265701,-0.1525116,-0.79599,-0.5568542,12.75783,-27.29017,-20.99805,108.4327,108.089,26,0.0.0.0,10.139.171.151,1,0
2013-11-12 15:19:57.537,217,21.7,52.1703,4.456979,0,3.703403,99.78545,9,5,1384265701,-0.184845,-0.8308411,-0.5948486,12.8129,-29.10019,-15.77594,115.3298,114.9861,26,0.0.0.0,10.139.171.151,1,0
2013-11-12 15:19:57.660,218,21.8,52.1703,4.456979,0,3.703403,99.78545,9,5,1384265701,-0.2453308,-0.8004913,-0.613678,10.22462,-28.49685,-9.635658,128.0033,127.6596,26,0.0.0.0,10.139.171.151,1,0
2013-11-12 15:19:57.801,219,21.9,52.1703,4.456979,0,3.703403,99.78545,9,5,1384265701,-0.2525177,-0.7872314,-0.56604,6.975519,-27.89352,-8.08625,121.6898,121.3461,26,0.0.0.0,10.139.171.151,1,0
2013-11-12 15:19:58.080,220,22,52.1703,4.456979,0,3.703403,99.78545,9,5,1384265701,-0.21875,-0.7570496,-0.6127167,5.048084,-25.97381,-7.340225,111.7844,111.4406,26,0.0.0.0,10.139.171.151,1,0
2013-11-12 15:19:58.226,221,22.1,52.1703,4.456979,0,3.703403,99.78545,9,5,1384265701,-0.1908264,-0.8516388,-0.6376648,1.413494,-21.47621,-8.83226,100.3455,100.0017,26,0.0.0.0,10.139.171.151,1,0
2013-11-12 15:19:58.396,222,22.2,52.1703,4.456979,0,3.703403,99.78545,9,5,1384265701,-0.1442566,-0.7021179,-0.5366364,1.083073,-18.40467,-12.84927,84.83002,84.4863,26,0.0.0.0,10.139.171.151,1,0
2013-11-12 15:19:58.522,223,22.3,52.1703,4.456979,0,3.703403,99.78545,9,5,1384265701,-0.1255646,-0.8428345,-0.6014099,2.625019,-19.39195,-19.62079,78.83822,78.4945,26,0.0.0.0,10.139.171.151,1,0
2013-11-12 15:19:58.673,224,22.4,52.17029,4.457042,0,3.789757,104.9957,9,5,1384265702,-0.05653381,-0.824707,-0.6080017,4.607529,-20.48893,-24.4412,81.99386,81.65014,26,0.0.0.0,10.139.171.151,1,0
2013-11-12 15:19:58.807,225,22.5,52.17029,4.457042,0,3.789757,104.9957,9,5,1384265702,-0.0305481,-0.882782,-0.5960541,8.242119,-22.68288,-20.99805,93.54613,93.20241,26,0.0.0.0,10.139.171.151,1,0
2013-11-12 15:19:59.020,226,22.6,52.17029,4.457042,0,3.789757,104.9957,9,5,1384265702,-0.06460571,-0.8152771,-0.5554962,10.83039,-24.16381,-14.85777,106.4099,106.0661,26,0.0.0.0,10.139.171.151,1,0
2013-11-12 15:19:59.136,227,22.7,52.17029,4.457042,0,3.789757,104.9957,9,5,1384265702,-0.1341858,-0.7995911,-0.5947266,11.82164,-24.7123,-11.5294,116.0766,115.7329,26,0.0.0.0,10.139.171.151,1,0
2013-11-12 15:19:59.243,228,22.8,52.17029,4.457042,0,3.789757,104.9957,9,5,1384265702,-0.1169891,-0.8084717,-0.5664215,10.55504,-25.09623,-7.914085,120.4585,120.1148,26,0.0.0.0,10.139.171.151,1,0
2013-11-12 15:19:59.353,229,22.9,52.17029,4.457042,0,3.789757,104.9957,9,5,1384265702,-0.1102142,-0.8060455,-0.606308,9.83914,-24.4929,-6.249901,119.649,119.3053,26,0.0.0.0,10.139.171.151,1,0
2013-11-12 15:19:59.615,230,23,52.17029,4.457042,0,3.789757,104.9957,9,5,1384265702,-0.1250458,-0.7812958,-0.6044769,5.874128,-20.43408,-5.905586,107.2006,106.8569,26,0.0.0.0,10.139.171.151,1,0
2013-11-12 15:20:00.330,231,23.1,52.17028,4.457111,0,3.867495,106.5403,9,5,1384265703,-0.1495056,-0.8430328,-0.5684052,5.048084,-18.73377,-21.68668,85.41321,85.06949,26,0.0.0.0,10.139.171.151,1,0
2013-11-12 15:20:00.728,232,23.2,52.17028,4.457111,0,3.867495,106.5403,9,5,1384265703,-0.2686157,-0.789856,-0.5690155,8.131981,-22.79258,-19.27648,97.94491,97.60119,26,0.0.0.0,10.139.171.151,1,0
2013-11-12 15:20:01.033,233,23.3,52.17028,4.457111,0,3.867495,106.5403,9,5,1384265703,-0.2445984,-0.8076019,-0.5328522,8.902956,-24.32834,-16.7515,105.3341,104.9904,26,0.0.0.0,10.139.171.151,1,0
2013-11-12 15:20:01.167,234,23.4,52.17028,4.457111,0,3.867495,106.5403,9,5,1384265703,-0.1733398,-0.8031921,-0.5374451,10.05942,-25.91895,-15.31686,110.8875,110.5438,26,0.0.0.0,10.139.171.151,1,0
2013-11-12 15:20:01.300,235,23.5,52.17028,4.457111,0,3.867495,106.5403,9,5,1384265703,-0.07647705,-0.7917023,-0.5663147,11.82164,-26.57714,-11.98848,116.809,116.4653,26,0.0.0.0,10.139.171.151,1,0
2013-11-12 15:20:01.408,236,23.6,52.17028,4.457111,0,3.867495,106.5403,9,5,1384265703,-0.08335876,-0.8564911,-0.6148376,11.10574,-26.3029,-5.618652,124.271,123.9272,26,0.0.0.0,10.139.171.151,1,0
2013-11-12 15:20:01.533,237,23.7,52.17028,4.457111,0,3.867495,106.5403,9,5,1384265703,-0.117218,-0.7912292,-0.6044159,-19.58721,-21.0942,3.820412,130.8318,130.4881,26,0.0.0.0,10.139.171.151,1,0
2013-11-12 15:20:01.620,238,23.8,52.17027,4.457185,0,3.94271,100.1801,9,5,1384265704,-0.1273193,-0.808548,-0.5966339,9.690899,-26.52334,-4.389023,225.6931,225.3494,25,0.0.0.0,10.139.171.151,1,0
2013-11-12 15:20:01.820,239,23.9,52.17027,4.457185,0,3.94271,100.1801,9,5,1384265704,-0.1560974,-0.7944489,-0.6113892,6.276056,-21.91647,-3.355423,218.196,217.8523,25,0.0.0.0,10.139.171.151,1,0
2013-11-12 15:20:02.081,240,24,52.17027,4.457185,0,3.94271,100.1801,9,5,1384265704,-0.177597,-0.7770081,-0.5696564,2.090118,-19.39366,-9.327301,193.0238,192.6801,26,0.0.0.0,10.139.171.151,1,0
2013-11-12 15:20:02.232,241,24.1,52.17027,4.457185,0,3.94271,100.1801,9,5,1384265704,-0.1930542,-0.7790833,-0.5074158,2.91629,-19.99694,-17.65347,179.2982,178.9545,26,0.0.0.0,10.139.171.151,1,0
2013-11-12 15:20:02.366,242,24.2,52.17027,4.457185,0,3.94271,100.1801,9,5,1384265704,-0.1875763,-0.9262848,-0.5634766,4.568634,-22.19069,-22.59175,180.0018,179.6581,26,0.0.0.0,10.139.171.151,1,0
2013-11-12 15:20:02.528,243,24.3,52.17027,4.457185,0,3.94271,100.1801,9,5,1384265704,-0.1878052,-0.8333588,-0.5549469,4.513557,-23.45209,-23.10855,184.7955,184.4518,26,0.0.0.0,10.139.171.151,1,0
2013-11-12 15:20:02.731,244,24.4,52.17027,4.457185,0,3.94271,100.1801,9,5,1384265704,-0.2399292,-0.8784943,-0.5813293,6.276056,-24.2199,-22.07496,189.8259,189.4822,26,0.0.0.0,10.139.171.151,3,0
2013-11-12 15:20:03.023,245,24.5,52.17025,4.457255,0,4.004084,104.4001,9,5,1384265705,-0.1502686,-0.7667694,-0.5646973,11.89402,-27.29115,-14.72496,206.6328,206.289,26,0.0.0.0,10.139.171.151,3,0
2013-11-12 15:20:03.168,246,24.6,52.17025,4.457255,0,4.004084,104.4001,9,5,1384265705,-0.1792297,-0.8812256,-0.533371,11.56356,-28.05897,-10.70543,216.1055,215.7618,26,0.0.0.0,10.139.171.151,3,0
2013-11-12 15:20:03.401,247,24.7,52.17025,4.457255,0,4.004084,104.4001,9,5,1384265705,-0.1521759,-0.8647766,-0.4924316,9.856134,-28.88162,-7.432381,219.0633,218.7196,26,0.0.0.0,10.139.171.151,3,0
2013-11-12 15:20:03.581,248,24.8,52.17025,4.457255,0,4.004084,104.4001,9,5,1384265705,-0.1364136,-0.8783417,-0.5516968,6.936993,-25.8652,-5.30777,212.3358,211.9921,26,0.0.0.0,10.139.171.151,3,0
2013-11-12 15:20:03.803,249,24.9,52.17025,4.457255,0,4.004084,104.4001,9,5,1384265705,-0.1320648,-0.8617249,-0.5429688,4.899101,-21.8616,-6.283943,200.2948,199.9511,26,0.0.0.0,10.139.171.151,3,0
2013-11-12 15:20:04.230,250,25,52.17025,4.457255,0,4.004084,104.4001,9,5,1384265705,-0.1381989,-0.7953644,-0.5684814,3.797539,-19.77754,-10.07378,189.4552,189.1114,26,0.0.0.0,10.139.171.151,5,0
2013-11-12 15:20:04.470,251,25.1,52.17025,4.457255,0,4.004084,104.4001,9,5,1384265705,-0.1568756,-0.817215,-0.5392914,2.806133,-19.55816,-13.28941,181.8681,181.5244,26,0.0.0.0,10.139.171.151,5,0
2013-11-12 15:20:04.739,252,25.2,52.17025,4.457255,0,4.004084,104.4001,9,5,1384265705,-0.1398163,-0.8155212,-0.5314178,3.136604,-19.66786,-19.0316,179.0263,178.6826,26,0.0.0.0,10.139.171.151,5,0
