time,timestamp,recordtime,lat,long,alt,speed,course,verticalAccuracy,horizontalAccuracy,locTimeStamp,accelerationX,accelerationY,accelerationZ,HeadingX,HeadingY,HeadingZ,TrueHeading,MagneticHeading,HeadingAccuracy,en0,pdp_ip0,DeviceOrientation,Event
2013-11-12 15:07:30.959,1,0.1,52.16905,4.458638,52.4283,0,-1,12.42232,10,1384265228,-0.173645,-0.5364075,-0.538147,13.04214,-43.5982,-35.61217,28.92226,28.57854,16,0.0.0.0,10.139.171.151,1,0
2013-11-12 15:07:31.351,2,0.2,52.16905,4.458638,52.4283,0,-1,12.42232,10,1384265228,-0.2959747,-0.7738037,-0.6928101,12.82183,-43.26914,-34.80827,29.52483,29.18111,16,0.0.0.0,10.139.171.151,1,0
2013-11-12 15:07:31.457,3,0.3,52.16905,4.458638,52.4283,0,-1,12.42232,10,1384265228,-0.2236481,-1.103119,-0.7461853,13.26246,-43.5982,-34.23405,29.98366,29.63995,16,0.0.0.0,10.139.171.151,1,0
2013-11-12 15:07:31.611,4,0.4,52.16905,4.458638,52.4283,0,-1,12.42232,10,1384265228,-0.2236481,-1.103119,-0.7461853,13.37261,-44.03695,-34.00436,30.67854,30.33483,16,0.0.0.0,10.139.171.151,1,0
2013-11-12 15:07:31.715,5,0.5,52.16905,4.458638,52.4283,0,-1,12.42232,10,1384265228,-0.2799072,-1.200821,-0.6487732,12.1609,-43.81757,-32.16686,30.88445,30.54074,16,0.0.0.0,10.139.171.151,1,0
2013-11-12 15:07:31.809,6,0.6,52.16905,4.458638,52.4283,0,-1,12.42232,10,1384265228,-0.1399231,-0.9348755,-0.5437775,12.27105,-43.5982,-32.28171,30.90568,30.56197,16,0.0.0.0,10.139.171.151,1,0
2013-11-12 15:07:31.955,7,0.7,52.16905,4.458638,52.4283,0,-1,12.42232,10,1384265228,-0.3753204,-0.5371094,-0.5184784,12.71168,-44.36601,-33.43015,31.41113,31.06741,16,0.0.0.0,10.139.171.151,1,0
2013-11-12 15:07:32.504,8,0.8,52.16905,4.458638,52.4283,0,-1,12.42232,10,1384265228,-0.1521912,-0.5957642,-0.5709991,12.32613,-43.10461,-32.45397,31.4438,31.10009,16,0.0.0.0,10.139.171.151,1,0
2013-11-12 15:07:32.864,9,0.9,52.16905,4.458638,52.4283,0,-1,12.51774,10,1384265229,-0.1939545,-0.860321,-0.7408447,12.60152,-42.94008,-32.85593,31.4423,31.09858,16,0.0.0.0,10.139.171.151,1,0
2013-11-12 15:07:33.251,10,1,52.16905,4.458638,52.4283,0,-1,12.51774,10,1384265229,-0.1939545,-0.860321,-0.7408447,12.10582,-43.76273,-33.02819,31.43825,31.09454,16,0.0.0.0,10.139.171.151,1,0
2013-11-12 15:07:33.560,11,1.1,52.16905,4.458638,52.4283,0,-1,12.51774,10,1384265229,0.1666107,-1.142166,-0.8565063,11.61012,-43.70789,-34.00436,31.43446,31.09074,16,0.0.0.0,10.139.171.151,1,0
2013-11-12 15:07:33.756,12,1.2,52.16905,4.458638,52.4283,0,-1,12.51774,10,1384265229,0.1666107,-1.142166,-0.8565063,11.77535,-43.65305,-34.17663,31.43084,31.08712,16,0.0.0.0,10.139.171.151,1,0
2013-11-12 15:07:33.891,13,1.3,52.16905,4.458638,52.4283,0,-1,12.51774,10,1384265229,0.2888794,-0.9784241,-0.526413,12.1609,-43.70789,-33.65984,31.42812,31.08441,16,0.0.0.0,10.139.171.151,1,0
2013-11-12 15:07:34.009,14,1.4,52.16905,4.458638,52.4283,0,-1,12.51774,10,1384265229,0.05714417,-0.6533203,-0.5320587,12.27105,-43.48852,-33.20045,31.42482,31.08111,16,0.0.0.0,10.139.171.151,1,0
2013-11-12 15:07:34.242,15,1.5,52.16905,4.458638,52.4283,0,-1,12.51774,10,1384265229,-0.09397888,-0.5571136,-0.3829803,11.61012,-43.70789,-33.77467,31.42082,31.07711,16,0.0.0.0,10.139.171.151,1,0
2013-11-12 15:07:34.513,16,1.6,52.16905,4.458638,52.4283,0,-1,12.51774,10,1384265229,-0.1180878,-0.7718353,-0.2968292,12.43629,-43.76273,-33.8321,31.42,31.07628,16,0.0.0.0,10.139.171.151,1,0
2013-11-12 15:07:34.846,17,1.7,52.16905,4.458638,52.4283,0,-1,12.51774,10,1384265229,-0.2176514,-0.8564301,-0.3602905,11.22457,-43.54336,-33.94695,31.42154,31.07782,16,0.0.0.0,10.139.171.151,1,0
2013-11-12 15:07:35.059,18,1.8,52.16905,4.458638,52.4283,0,-1,12.51774,10,1384265229,-0.1027069,-0.921875,-0.4287872,12.05074,-44.36602,-34.11921,31.42147,31.07775,16,0.0.0.0,10.139.171.151,1,0
2013-11-12 15:07:35.325,19,1.9,52.16905,4.458638,52.4283,0,-1,12.51774,10,1384265229,-0.1762848,-0.9580231,-0.5886536,12.21597,-43.65305,-34.29147,31.41944,31.07572,16,0.0.0.0,10.139.171.151,1,0
2013-11-12 15:07:35.607,20,2,52.16905,4.458638,52.4283,0,-1,41.43603,30,1384265230,-0.09165955,-0.8699951,-0.3948059,11.83043,-43.81758,-34.57858,31.41564,31.07192,16,0.0.0.0,10.139.171.151,1,0
2013-11-12 15:07:35.738,21,2.1,52.16905,4.458638,52.4283,0,-1,41.43603,30,1384265230,-0.1976624,-0.7288055,-0.577652,12.6566,-43.65304,-37.62194,31.16183,30.81811,16,0.0.0.0,10.139.171.151,1,0
2013-11-12 15:07:35.942,22,2.2,52.16905,4.458638,52.4283,0,-1,41.43603,30,1384265230,-0.1801758,-0.83255,-0.7739716,1.888911e-38,0,0,0,0,-1,0.0.0.0,10.139.171.151,1,0
2013-11-12 15:07:36.172,23,2.3,52.16905,4.458638,52.4283,0,-1,41.43603,30,1384265230,0.02449036,-0.8602905,-0.6893768,11.61012,-43.81757,-41.00983,292.3721,292.0284,25,0.0.0.0,10.139.171.151,1,0
2013-11-12 15:07:36.388,24,2.4,52.16905,4.458638,52.4283,0,-1,41.43603,30,1384265230,-0.01707458,-0.956192,-0.6882935,11.72027,-43.70789,-45.14421,298.8797,298.5359,25,0.0.0.0,10.139.171.151,1,0
2013-11-12 15:07:36.532,25,2.5,52.16905,4.458638,52.4283,0,-1,41.43603,30,1384265230,-0.0506134,-0.7925415,-0.6022186,11.94058,-43.70789,-45.14421,298.67,298.3262,25,0.0.0.0,10.139.171.151,1,0
2013-11-12 15:07:36.672,26,2.6,52.16905,4.458638,52.4283,0,-1,41.43603,30,1384265230,-0.1191711,-0.7051392,-0.5997925,11.11441,-43.32399,-43.59382,298.6481,298.3044,25,0.0.0.0,10.139.171.151,1,0
2013-11-12 15:07:36.759,27,2.7,52.16905,4.458638,52.4283,0,-1,41.43603,30,1384265230,-0.01481628,-0.6832581,-0.6510468,11.16949,-42.39164,-44.91452,298.7219,298.3782,25,0.0.0.0,10.139.171.151,1,0
2013-11-12 15:07:36.923,28,2.8,52.16905,4.458638,52.4283,0,-1,41.43603,30,1384265230,-0.01420593,-0.8788452,-0.447052,11.77535,-42.22711,-44.8571,298.8242,298.4805,25,0.0.0.0,10.139.171.151,1,0
2013-11-12 15:07:37.200,29,2.9,52.16905,4.458638,52.4283,0,-1,41.43603,30,1384265230,-0.1844635,-0.8559418,-0.340683,11.33472,-42.44649,-44.51257,298.8615,298.5178,25,0.0.0.0,10.139.171.151,1,0
2013-11-12 15:07:37.299,30,3,52.16905,4.458638,52.4283,0,-1,39.97821,30,1384265231,-0.1274261,-0.8027802,-0.3892822,11.61012,-42.61102,-45.14421,298.8916,298.5479,25,0.0.0.0,10.139.171.151,1,0
2013-11-12 15:07:37.427,31,3.1,52.16905,4.458638,52.4283,0,-1,39.97821,30,1384265231,-0.1192474,-0.8992767,-0.6693878,11.99566,-42.88523,-44.97194,298.9353,298.5916,25,0.0.0.0,10.139.171.151,1,0
2013-11-12 15:07:37.497,32,3.2,52.16905,4.458638,52.4283,0,-1,39.97821,30,1384265231,-0.08694458,-0.8997955,-0.656601,12.21597,-43.10461,-44.74226,298.9187,298.575,25,0.0.0.0,10.139.171.151,1,0
2013-11-12 15:07:37.608,33,3.3,52.16905,4.458638,52.4283,0,-1,39.97821,30,1384265231,-0.1168518,-0.7555237,-0.6522217,11.44488,-43.65305,-44.16804,298.908,298.5642,25,0.0.0.0,10.139.171.151,1,0
2013-11-12 15:07:37.711,34,3.4,52.16905,4.458638,52.4283,0,-1,39.97821,30,1384265231,-0.1168518,-0.7555237,-0.6522217,11.83043,-43.04976,-44.79967,298.9557,298.612,25,0.0.0.0,10.139.171.151,1,0
2013-11-12 15:07:37.812,35,3.5,52.16905,4.458638,52.4283,0,-1,39.97821,30,1384265231,0.05203247,-0.7869873,-0.6290741,12.60152,-42.83039,-44.45515,298.9525,298.6088,25,0.0.0.0,10.139.171.151,1,0
2013-11-12 15:07:37.884,36,3.6,52.16905,4.458638,52.4283,0,-1,39.97821,30,1384265231,0.004470825,-0.7915955,-0.5942078,12.05074,-43.15945,-44.3403,298.9247,298.5809,25,0.0.0.0,10.139.171.151,1,0
2013-11-12 15:07:37.983,37,3.7,52.16905,4.458638,52.4283,0,-1,39.97821,30,1384265231,-0.1126099,-0.9143372,-0.5904541,11.55503,-43.43367,-44.16804,298.9125,298.5688,25,0.0.0.0,10.139.171.151,1,0
2013-11-12 15:07:38.201,38,3.8,52.16905,4.458638,52.4283,0,-1,39.97821,30,1384265231,-0.1233673,-0.9154358,-0.5194397,11.49996,-42.7207,-45.25905,298.9542,298.6104,25,0.0.0.0,10.139.171.151,1,0
2013-11-12 15:07:38.292,39,3.9,52.16905,4.458638,52.4283,0,-1,39.97821,30,1384265231,-0.07211304,-0.7975922,-0.4513855,11.83043,-42.83039,-44.3403,298.9802,298.6365,25,0.0.0.0,10.139.171.151,1,0
2013-11-12 15:07:38.374,40,4,52.16905,4.458638,52.4283,0,-1,39.97821,30,1384265231,-0.1303101,-0.9073334,-0.5009766,10.67379,-42.77554,-44.28288,299.0049,298.6612,25,0.0.0.0,10.139.171.151,1,0
2013-11-12 15:07:38.492,41,4.1,52.16905,4.458638,52.4283,0,-1,39.97821,30,1384265231,-0.1303101,-0.9073334,-0.5009766,10.3984,-42.17226,-45.02937,299.0676,298.7239,25,0.0.0.0,10.139.171.151,1,0
2013-11-12 15:07:38.584,42,4.2,52.16905,4.458638,52.4283,0,-1,38.97052,30,1384265232,-0.04443359,-0.8076782,-0.4249573,11.22457,-42.77554,-45.43132,299.1317,298.788,25,0.0.0.0,10.139.171.151,1,0
2013-11-12 15:07:38.670,43,4.3,52.16905,4.458638,52.4283,0,-1,38.97052,30,1384265232,-0.04412842,-0.8764343,-0.5717926,12.21597,-42.77555,-45.54616,299.1614,298.8177,25,0.0.0.0,10.139.171.151,1,0
2013-11-12 15:07:38.784,44,4.4,52.16905,4.458638,52.4283,0,-1,38.97052,30,1384265232,-0.03071594,-0.8442078,-0.5435944,12.76675,-42.77555,-44.05319,297.5359,297.1922,25,0.0.0.0,10.139.171.151,1,0
2013-11-12 15:07:38.880,45,4.5,52.16905,4.458638,52.4283,0,-1,38.97052,30,1384265232,-0.04653931,-0.8006439,-0.624588,11.49996,-42.7207,-43.65124,298.0377,297.6939,25,0.0.0.0,10.139.171.151,1,0
2013-11-12 15:07:38.976,46,4.6,52.16905,4.458638,52.4283,0,-1,38.97052,30,1384265232,-0.01622009,-0.7991486,-0.6088715,12.05074,-42.94007,-44.79967,298.7818,298.438,25,0.0.0.0,10.139.171.151,1,0
2013-11-12 15:07:39.059,47,4.7,52.16905,4.458638,52.4283,0,-1,38.97052,30,1384265232,-0.01899719,-0.8095093,-0.5728455,12.21597,-42.99492,-44.62741,298.7728,298.4291,25,0.0.0.0,10.139.171.151,1,0
2013-11-12 15:07:39.239,48,4.8,52.16905,4.458638,52.4283,0,-1,38.97052,30,1384265232,-0.0627594,-0.8413086,-0.6196594,11.61012,-42.94008,-44.79967,299.4243,299.0806,25,0.0.0.0,10.139.171.151,1,0
2013-11-12 15:07:39.450,49,4.9,52.16905,4.458638,52.4283,0,-1,38.97052,30,1384265232,-0.1173096,-0.8854065,-0.5360413,14.80465,-43.81758,-43.88093,299.0839,298.7401,25,0.0.0.0,10.139.171.151,1,0
2013-11-12 15:07:39.559,50,5,52.16905,4.458638,52.4283,0,-1,38.97052,30,1384265232,-0.1173096,-0.8854065,-0.5360413,13.59293,-43.04977,-44.91452,298.9649,298.6212,25,0.0.0.0,10.139.171.151,1,0
2013-11-12 15:07:39.658,51,5.1,52.16905,4.458638,52.4283,0,-1,38.97052,30,1384265232,-0.09518433,-0.7397003,-0.4749908,14.63941,-43.32398,-45.20163,298.9136,298.5699,25,0.0.0.0,10.139.171.151,1,0
2013-11-12 15:07:39.821,52,5.2,52.16905,4.458638,52.4283,0,-1,38.26876,30,1384265233,-0.07318115,-0.8084869,-0.5798798,14.47417,-44.25632,-45.14421,298.7807,298.437,25,0.0.0.0,10.139.171.151,1,0
2013-11-12 15:07:40.028,53,5.3,52.16905,4.458638,52.4283,0,-1,38.26876,30,1384265233,-0.08309937,-0.6906738,-0.8664551,15.13511,-41.8432,-47.44109,298.7954,298.4517,25,0.0.0.0,10.139.171.151,1,0
2013-11-12 15:07:40.272,54,5.4,52.16905,4.458638,52.4283,0,-1,38.26876,30,1384265233,-0.2264099,-0.8406677,-1.234634,14.9148,-41.62383,-48.24499,298.9377,298.594,25,0.0.0.0,10.139.171.151,1,0
2013-11-12 15:07:40.369,55,5.5,52.16905,4.458638,52.4283,0,-1,38.26876,30,1384265233,-0.02952576,-0.9246979,-1.452698,13.97847,-42.55617,-47.7282,302.5619,302.2182,25,0.0.0.0,10.139.171.151,1,0
2013-11-12 15:07:40.474,56,5.6,52.16905,4.458638,52.4283,0,-1,38.26876,30,1384265233,-0.02952576,-0.9246979,-1.452698,13.75816,-41.78836,-48.30241,302.6174,302.2737,25,0.0.0.0,10.139.171.151,1,0
2013-11-12 15:07:40.583,57,5.7,52.16905,4.458638,52.4283,0,-1,38.26876,30,1384265233,-0.1508331,-0.7720795,-1.048569,14.03355,-42.28195,-48.58952,304.3208,303.9771,25,0.0.0.0,10.139.171.151,1,0
2013-11-12 15:07:40.681,58,5.8,52.16905,4.458638,52.4283,0,-1,38.26876,30,1384265233,-0.293869,-0.5294037,-1.113068,13.648,-42.66586,-48.18757,304.5503,304.2066,25,0.0.0.0,10.139.171.151,1,0
2013-11-12 15:07:40.773,59,5.9,52.16905,4.458638,52.4283,0,-1,38.26876,30,1384265233,-0.4865875,-0.3678436,-0.3071136,10.56363,-41.13023,-51.86256,311.4634,311.1197,25,0.0.0.0,10.139.171.151,1,0
2013-11-12 15:07:40.900,60,6,52.16905,4.458638,52.4283,0,-1,38.26876,30,1384265233,0.2628937,-0.4095917,0.0756073,10.56363,-37.9493,-55.99695,318.8166,318.4729,25,0.0.0.0,10.139.171.151,1,0
2013-11-12 15:07:41.058,61,6.1,52.16905,4.458638,52.4283,0,-1,38.26876,30,1384265233,1.000122,-1.003464,0.6525116,14.52925,-29.61305,-63.34694,322.1175,321.7737,25,0.0.0.0,10.139.171.151,1,0
2013-11-12 15:07:41.292,62,6.2,52.16905,4.458638,52.4283,0,-1,38.26876,30,1384265233,0.5141144,-0.6025238,0.150116,15.02496,-27.8032,-64.78249,323.9617,323.618,25,0.0.0.0,10.139.171.151,1,0
2013-11-12 15:07:41.393,63,6.3,52.16905,4.458638,52.4283,0,-1,38.26876,30,1384265233,0.2539215,-0.4552917,-0.0294342,15.63082,-26.98055,-64.61023,323.302,322.9583,25,0.0.0.0,10.139.171.151,1,0
2013-11-12 15:07:41.484,64,6.4,52.16905,4.458638,52.4283,0,-1,38.26876,30,1384265233,0.2606354,-0.7721863,-0.1502686,16.23668,-26.9257,-63.97858,322.3344,321.9907,25,0.0.0.0,10.139.171.151,1,0
2013-11-12 15:07:41.620,65,6.5,52.16903,4.458807,46.13895,0,-1,39.08224,30,1384265234,0.2606354,-0.7721863,-0.1502686,16.23668,-26.48695,-63.7489,322.3545,322.0108,25,0.0.0.0,10.139.171.151,1,0
2013-11-12 15:07:41.811,66,6.6,52.16903,4.458807,46.13895,0,-1,39.08224,30,1384265234,-0.02581787,-0.7034607,-0.6403198,14.74957,-27.74836,-64.15085,322.9782,322.6345,25,0.0.0.0,10.139.171.151,1,0
2013-11-12 15:07:41.906,67,6.7,52.16903,4.458807,46.13895,0,-1,39.08224,30,1384265234,-0.02581787,-0.7034607,-0.6403198,13.75816,-27.85805,-64.03601,323.0537,322.71,25,0.0.0.0,10.139.171.151,1,0
2013-11-12 15:07:42.012,68,6.8,52.16903,4.458807,46.13895,0,-1,39.08224,30,1384265234,-0.0629425,-0.7820587,-0.659729,13.648,-28.62586,-63.57663,323.1088,322.7651,25,0.0.0.0,10.139.171.151,1,0
2013-11-12 15:07:42.218,69,6.9,52.16903,4.458807,46.13895,0,-1,39.08224,30,1384265234,-0.1360931,-0.764801,-1.185806,12.82183,-30.98414,-61.91139,323.1535,322.8098,25,0.0.0.0,10.139.171.151,1,0
2013-11-12 15:07:42.291,70,7,52.16903,4.458807,46.13895,0,-1,39.08224,30,1384265234,-0.1552124,-0.6390076,-1.366318,11.16949,-32.84883,-60.41843,324.3056,323.9619,25,0.0.0.0,10.139.171.151,1,0
2013-11-12 15:07:42.410,71,7.1,52.16903,4.458807,46.13895,0,-1,39.08224,30,1384265234,-0.2165985,-0.6135254,-1.168015,11.00425,-34.00055,-59.78679,323.6575,323.3138,25,0.0.0.0,10.139.171.151,1,0
2013-11-12 15:07:42.514,72,7.2,52.16903,4.458807,46.13895,0,-1,39.08224,30,1384265234,-0.3849487,-0.5916595,-0.8484192,11.3898,-34.60383,-59.38483,322.809,322.4652,25,0.0.0.0,10.139.171.151,1,0
2013-11-12 15:07:42.590,73,7.3,52.16903,4.458807,46.13895,0,-1,39.08224,30,1384265234,-0.3849487,-0.5916595,-0.8484192,11.83043,-34.93289,-59.15515,322.7843,322.4406,25,0.0.0.0,10.139.171.151,1,0
2013-11-12 15:07:42.689,74,7.4,52.16903,4.458807,46.13895,0,-1,39.08224,30,1384265234,0.0774231,-0.7176819,-0.9076233,11.16949,-33.83602,-59.84421,322.7998,322.4561,25,0.0.0.0,10.139.171.151,1,0
2013-11-12 15:07:42.772,75,7.5,52.16903,4.458807,46.13895,0,-1,39.08224,30,1384265234,0.2204437,-0.6361542,-0.9783478,10.45347,-34.00055,-59.78679,324.182,323.8383,25,0.0.0.0,10.139.171.151,1,0
2013-11-12 15:07:42.893,76,7.6,52.16903,4.458807,46.13895,0,-1,39.08224,30,1384265234,0.2204437,-0.6361542,-0.9783478,14.19878,-30.16148,-65.0696,325.6456,325.3019,25,0.0.0.0,10.139.171.151,1,0
2013-11-12 15:07:42.974,77,7.7,52.16903,4.458807,46.13895,0,-1,40.84352,30,1384265235,0.02876282,-0.50914,-0.6474457,14.85972,-28.73555,-66.56256,326.0662,325.7225,25,0.0.0.0,10.139.171.151,1,0
2013-11-12 15:07:43.170,78,7.8,52.16903,4.458807,46.13895,0,-1,40.84352,30,1384265235,0.02876282,-0.50914,-0.6474457,15.46558,-27.14508,-66.73483,324.6436,324.2999,25,0.0.0.0,10.139.171.151,1,0
2013-11-12 15:07:43.343,79,7.9,52.16903,4.458807,46.13895,0,-1,40.84352,30,1384265235,0.2014313,-0.5302887,-0.8774414,16.40191,-25.55461,-65.64381,323.4649,323.1212,25,0.0.0.0,10.139.171.151,1,0
2013-11-12 15:07:43.447,80,8,52.16903,4.458807,46.13895,0,-1,40.84352,30,1384265235,-0.3952942,-0.3507385,-0.8140564,15.79605,-27.25476,-64.89734,323.0448,322.7011,25,0.0.0.0,10.139.171.151,1,0
2013-11-12 15:07:43.618,81,8.1,52.16903,4.458807,46.13895,0,-1,40.84352,30,1384265235,0.3132782,-0.6811371,-0.8853607,13.48277,-29.11946,-64.32312,323.443,323.0993,25,0.0.0.0,10.139.171.151,1,0
2013-11-12 15:07:43.717,82,8.2,52.16903,4.458807,46.13895,0,-1,40.84352,30,1384265235,0.3132782,-0.6811371,-0.8853607,13.53785,-29.28399,-63.92116,323.2632,322.9194,25,0.0.0.0,10.139.171.151,1,0
2013-11-12 15:07:43.826,83,8.3,52.16903,4.458807,46.13895,0,-1,40.84352,30,1384265235,0.3707428,-0.4673157,-0.7795563,14.30894,-29.28399,-63.92116,323.2452,322.9015,25,0.0.0.0,10.139.171.151,1,0
2013-11-12 15:07:43.925,84,8.400001,52.16903,4.458807,46.13895,0,-1,40.84352,30,1384265235,0.15448,-0.6071625,-0.835556,14.19878,-29.50336,-63.92116,323.2132,322.8695,25,0.0.0.0,10.139.171.151,1,0
2013-11-12 15:07:44.037,85,8.5,52.16903,4.458807,46.13895,0,-1,40.84352,30,1384265235,-0.1069946,-0.4929352,-0.7745667,14.69449,-29.77758,-63.28952,323.1729,322.8292,25,0.0.0.0,10.139.171.151,1,0
2013-11-12 15:07:44.259,86,8.6,52.16903,4.458807,46.13895,0,-1,12.32183,10,1384265236,-0.15625,-0.3466034,-0.9124146,13.70308,-29.5582,-63.17468,323.1542,322.8105,25,0.0.0.0,10.139.171.151,1,0
2013-11-12 15:07:44.368,87,8.7,52.16903,4.458807,46.13895,0,-1,12.32183,10,1384265236,-0.2309265,-0.3674469,-1.328384,14.25386,-29.33883,-63.40436,325.1485,324.8047,25,0.0.0.0,10.139.171.151,1,0
2013-11-12 15:07:44.466,88,8.8,52.16903,4.458807,46.13895,0,-1,12.32183,10,1384265236,0.02574158,-0.4394989,-1.167526,13.86832,-28.73554,-62.65788,325.6916,325.3478,25,0.0.0.0,10.139.171.151,1,0
2013-11-12 15:07:44.563,89,8.900001,52.16903,4.458807,46.13895,0,-1,12.32183,10,1384265236,-0.03230286,-0.4308777,-0.7734528,13.648,-28.07742,-63.46179,325.9833,325.6396,25,0.0.0.0,10.139.171.151,1,0
2013-11-12 15:07:44.745,90,9,52.16903,4.458807,46.13895,0,-1,12.32183,10,1384265236,-0.08084106,-0.5279694,-0.9155426,13.42769,-29.39367,-64.03601,325.9908,325.6471,25,0.0.0.0,10.139.171.151,1,0
2013-11-12 15:07:44.848,91,9.1,52.16903,4.458807,46.13895,0,-1,12.32183,10,1384265236,0.1028137,-0.5476379,-0.8515015,13.70308,-29.77758,-62.60046,325.9098,325.5661,25,0.0.0.0,10.139.171.151,1,0
2013-11-12 15:07:45.014,92,9.2,52.16903,4.458807,46.13895,0,-1,12.32183,10,1384265236,-0.3906555,-0.5533295,-0.6177979,13.86832,-29.83242,-63.57663,325.8739,325.5302,25,0.0.0.0,10.139.171.151,1,0
2013-11-12 15:07:45.222,93,9.3,52.16903,4.458807,46.13895,0,-1,12.32183,10,1384265236,-0.3906555,-0.5533295,-0.6177979,14.9148,-27.91289,-63.28952,324.6665,324.3228,25,0.0.0.0,10.139.171.151,1,0
2013-11-12 15:07:45.434,94,9.400001,52.16903,4.458807,46.13895,0,-1,12.32183,10,1384265236,-0.4321136,-0.4645386,-0.7262726,17.173,-24.45773,-65.64381,324.9516,324.6079,25,0.0.0.0,10.139.171.151,1,0
2013-11-12 15:07:45.548,95,9.5,52.16903,4.458807,46.13895,0,-1,13.16428,10,1384265237,-0.3618011,-0.4750977,-0.658783,18.71519,-22.81242,-67.59616,325.3408,324.9971,25,0.0.0.0,10.139.171.151,1,0
2013-11-12 15:07:45.652,96,9.6,52.16903,4.458807,46.13895,0,-1,13.16428,10,1384265237,-0.3967438,-0.478653,-0.6959229,18.77027,-22.31883,-67.99811,324.9488,324.605,25,0.0.0.0,10.139.171.151,1,0
2013-11-12 15:07:45.752,97,9.7,52.16903,4.458807,46.13895,0,-1,13.16428,10,1384265237,-0.4471741,-0.4542389,-0.8091125,19.37613,-23.14148,-68.28522,324.3839,324.0402,25,0.0.0.0,10.139.171.151,1,0
2013-11-12 15:07:45.877,98,9.8,52.16903,4.458807,46.13895,0,-1,13.16428,10,1384265237,-0.4426727,-0.6051636,-0.8476257,19.2109,-22.86727,-68.80202,324.3147,323.971,25,0.0.0.0,10.139.171.151,1,0
2013-11-12 15:07:45.956,99,9.900001,52.16903,4.458807,46.13895,0,-1,13.16428,10,1384265237,-0.3757935,-0.5416565,-0.8095856,19.10074,-23.30602,-67.19421,323.5291,323.1854,25,0.0.0.0,10.139.171.151,1,0
2013-11-12 15:07:46.059,100,10,52.16903,4.458807,46.13895,0,-1,13.16428,10,1384265237,-0.3757935,-0.5416565,-0.8095856,18.05425,-24.23836,-66.9071,324.0915,323.7478,25,0.0.0.0,10.139.171.151,1,0
2013-11-12 15:07:46.259,101,10.1,52.16903,4.458807,46.13895,0,-1,13.16428,10,1384265237,-0.583374,-0.4960938,-0.76474,14.08863,-28.29679,-65.29929,324.9444,324.6007,25,0.0.0.0,10.139.171.151,1,0
2013-11-12 15:07:46.444,102,10.2,52.16903,4.458807,46.13895,0,-1,13.16428,10,1384265237,-0.3110657,-0.5373993,-0.8453674,13.92339,-29.77758,-65.3567,325.2908,324.9471,25,0.0.0.0,10.139.171.151,1,0
2013-11-12 15:07:46.550,103,10.3,52.16903,4.458807,46.13895,0,-1,13.16428,10,1384265237,-0.3826447,-0.6158752,-0.818161,13.53785,-29.61305,-65.0696,325.5618,325.2181,25,0.0.0.0,10.139.171.151,1,0
2013-11-12 15:07:46.727,104,10.4,52.16903,4.458807,46.13895,0,-1,13.16428,10,1384265237,-0.708252,-0.6485138,0.2690582,14.08863,-29.06461,-65.18445,325.5256,325.1819,25,0.0.0.0,10.139.171.151,1,0
2013-11-12 15:07:46.825,105,10.5,52.16903,4.458807,46.13895,0,-1,13.16428,10,1384265237,-0.6248627,-0.5220032,-1.13092,14.36402,-29.00976,-64.66765,325.4659,325.1221,25,0.0.0.0,10.139.171.151,1,0
2013-11-12 15:07:46.907,106,10.6,52.16903,4.458807,46.13895,0,-1,13.16428,10,1384265237,-0.4659882,-0.516983,-0.5461578,13.75816,-29.39367,-65.52898,325.4484,325.1047,25,0.0.0.0,10.139.171.151,1,0
2013-11-12 15:07:47.023,107,10.7,52.16903,4.458807,46.13895,0,-1,13.16428,10,1384265237,-0.3192139,-0.5418243,-0.7032471,12.71168,-29.44852,-66.3903,325.4705,325.1268,25,0.0.0.0,10.139.171.151,1,0
2013-11-12 15:07:47.217,108,10.8,52.16903,4.458807,46.13895,0,-1,13.68017,10,1384265238,-0.3835449,-0.5945129,-0.7247772,13.42769,-30.05179,-65.52898,325.4746,325.1309,25,0.0.0.0,10.139.171.151,1,0
2013-11-12 15:07:47.305,109,10.9,52.16903,4.458807,46.13895,0,-1,13.68017,10,1384265238,-0.3835449,-0.5945129,-0.7247772,13.86832,-30.16148,-65.29929,324.3678,324.0241,25,0.0.0.0,10.139.171.151,1,0
2013-11-12 15:07:47.408,110,11,52.16903,4.458807,46.13895,0,-1,13.68017,10,1384265238,-0.5148468,-0.6096344,-0.6327515,14.03355,-27.91289,-66.16061,325.5406,325.1968,25,0.0.0.0,10.139.171.151,1,0
2013-11-12 15:07:47.508,111,11.1,52.16903,4.458807,46.13895,0,-1,13.68017,10,1384265238,-0.44104,-0.5580292,-0.6004791,14.80465,-26.48695,-66.84967,325.4738,325.1301,25,0.0.0.0,10.139.171.151,1,0
2013-11-12 15:07:47.592,112,11.2,52.16903,4.458807,46.13895,0,-1,13.68017,10,1384265238,-0.44104,-0.5580292,-0.6004791,15.4105,-25.6643,-67.13678,325.1947,324.851,25,0.0.0.0,10.139.171.151,1,0
2013-11-12 15:07:47.692,113,11.3,52.16903,4.458807,46.13895,0,-1,13.68017,10,1384265238,-0.4366455,-0.5265198,-0.67453,15.79605,-25.49977,-66.73483,324.735,324.3913,25,0.0.0.0,10.139.171.151,1,0
2013-11-12 15:07:47.795,114,11.4,52.16903,4.458807,46.13895,0,-1,13.68017,10,1384265238,-0.4366455,-0.5265198,-0.67453,16.56715,-25.06102,-67.07936,324.4736,324.1299,25,0.0.0.0,10.139.171.151,1,0
2013-11-12 15:07:47.868,115,11.5,52.16903,4.458807,46.13895,0,-1,13.68017,10,1384265238,-0.4655762,-0.6204834,-0.7522736,19.48629,-20.72836,-67.711,323.6243,323.2806,25,0.0.0.0,10.139.171.151,1,0
2013-11-12 15:07:47.974,116,11.6,52.16903,4.458807,46.13895,0,-1,13.68017,10,1384265238,-0.4044037,-0.5409546,-0.7941132,21.08355,-20.67351,-66.62,324.1379,323.7942,25,0.0.0.0,10.139.171.151,1,0
2013-11-12 15:07:48.186,117,11.7,52.16903,4.458807,46.13895,0,-1,13.68017,10,1384265238,-0.4878387,-0.627655,-0.8380127,20.36753,-21.38648,-67.36647,324.4369,324.0931,25,0.0.0.0,10.139.171.151,1,0
2013-11-12 15:07:48.281,118,11.8,52.16903,4.458807,46.13895,0,-1,46.55536,30,1384265239,-0.6092834,-0.6240692,-0.7070923,19.87183,-21.6607,-66.62,324.1749,323.8312,25,0.0.0.0,10.139.171.151,1,0
2013-11-12 15:07:48.363,119,11.9,52.16903,4.458807,46.13895,0,-1,46.55536,30,1384265239,-0.6092834,-0.6240692,-0.7070923,19.2109,-22.75758,-67.53874,324.3516,324.0078,25,0.0.0.0,10.139.171.151,1,0
2013-11-12 15:07:48.484,120,12,52.16903,4.458807,46.13895,0,-1,46.55536,30,1384265239,-0.5637207,-0.609848,-0.7643738,18.49488,-23.47055,-66.79225,324.4149,324.0712,25,0.0.0.0,10.139.171.151,1,0
2013-11-12 15:07:48.581,121,12.1,52.16903,4.458807,46.13895,0,-1,46.55536,30,1384265239,-0.3715973,-0.4808655,-0.7785492,15.85113,-25.11586,-65.98834,325.4591,325.1154,25,0.0.0.0,10.139.171.151,1,0
2013-11-12 15:07:48.675,122,12.2,52.16903,4.458807,46.13895,0,-1,46.55536,30,1384265239,-0.4358215,-0.5449677,-0.7669678,14.85972,-26.65148,-66.21803,325.1552,324.8115,25,0.0.0.0,10.139.171.151,1,0
2013-11-12 15:07:48.769,123,12.3,52.16903,4.458807,46.13895,0,-1,46.55536,30,1384265239,-0.2903595,-0.5113678,-0.5123901,14.36402,-28.02258,-65.3567,325.1388,324.795,25,0.0.0.0,10.139.171.151,1,0
2013-11-12 15:07:48.888,124,12.4,52.16903,4.458807,46.13895,0,-1,46.55536,30,1384265239,-0.3609009,-0.5440674,-0.9360657,14.52925,-28.95492,-64.03601,325.0917,324.748,25,0.0.0.0,10.139.171.151,1,0
2013-11-12 15:07:48.989,125,12.5,52.16903,4.458807,46.13895,0,-1,46.55536,30,1384265239,-0.4076691,-0.9062805,-0.7824707,14.30894,-29.28399,-63.92116,325.0245,324.6808,25,0.0.0.0,10.139.171.151,1,0
2013-11-12 15:07:49.186,126,12.6,52.16903,4.458807,46.13895,0,-1,46.55536,30,1384265239,-0.3043518,-0.7919312,-0.2254639,14.36402,-28.90008,-64.32312,324.9792,324.6355,25,0.0.0.0,10.139.171.151,1,0
2013-11-12 15:07:49.444,127,12.7,52.16903,4.458807,46.13895,0,-1,46.55536,30,1384265239,-0.1154938,-0.4444122,-0.3960114,14.30894,-28.84524,-63.2321,324.9333,324.5896,25,0.0.0.0,10.139.171.151,1,0
2013-11-12 15:07:49.625,128,12.8,52.16903,4.458807,46.13895,0,-1,46.55536,30,1384265239,-0.1154938,-0.4444122,-0.3960114,13.26246,-29.11946,-63.40436,324.9114,324.5677,25,0.0.0.0,10.139.171.151,1,0
2013-11-12 15:07:49.719,129,12.9,52.16903,4.458807,46.13895,0,-1,46.55536,30,1384265239,-0.3748779,-0.5473175,-0.5651855,13.48277,-28.13227,-65.12701,324.924,324.5803,25,0.0.0.0,10.139.171.151,1,0
2013-11-12 15:07:49.787,130,13,52.16903,4.458807,46.13895,0,-1,46.55536,30,1384265239,-0.3748779,-0.5473175,-0.5651855,15.08004,-27.30961,-65.52898,324.1115,323.7678,25,0.0.0.0,10.139.171.151,1,0
2013-11-12 15:07:50.062,131,13.1,52.16903,4.458807,46.13895,0,-1,46.55536,30,1384265239,-0.348465,-0.6015015,-0.6652222,16.1816,-26.76117,-66.1032,322.8527,322.509,25,0.0.0.0,10.139.171.151,1,0
2013-11-12 15:07:50.604,132,13.2,52.16903,4.458807,46.13895,0,-1,14.36263,10,1384265240,-0.42099,-0.6622162,-0.7315521,18.05425,-22.92211,-65.8735,321.5938,321.2501,25,0.0.0.0,10.139.171.151,1,0
2013-11-12 15:07:50.781,133,13.3,52.16903,4.458807,46.13895,0,-1,14.36263,10,1384265240,-0.4509735,-0.7839661,-0.6437225,18.32964,-22.5382,-66.73483,322.7127,322.369,25,0.0.0.0,10.139.171.151,1,0
2013-11-12 15:07:51.574,134,13.4,52.16903,4.458807,46.13895,0,-1,14.36263,10,1384265240,-0.2442169,-0.627121,-0.6754608,15.4105,-25.55461,-65.8735,323.1896,322.8459,25,0.0.0.0,10.139.171.151,1,0
2013-11-12 15:07:51.738,135,13.5,52.16903,4.458807,46.13895,0,-1,14.36263,10,1384265240,-0.3765717,-0.7867584,-0.6794434,15.90621,-24.95133,-66.3903,323.2519,322.9081,25,0.0.0.0,10.139.171.151,1,0
2013-11-12 15:07:51.929,136,13.6,52.16903,4.458807,46.13895,0,-1,14.36263,10,1384265240,-0.4595795,-0.7098694,-0.789978,16.40191,-25.44492,-66.1032,323.3083,322.9645,25,0.0.0.0,10.139.171.151,1,0
2013-11-12 15:07:52.388,137,13.7,52.16903,4.458807,46.13895,0,-1,14.36263,10,1384265240,-0.4386749,-0.5906677,-0.7483673,16.23668,-26.26757,-66.50514,323.2472,322.9035,25,0.0.0.0,10.139.171.151,1,0
2013-11-12 15:07:52.599,138,13.8,52.16903,4.458807,46.13895,0,-1,46.90466,30,1384265241,-0.4386749,-0.5906677,-0.7483673,15.46558,-25.82883,-65.5864,323.2779,322.9342,25,0.0.0.0,10.139.171.151,1,0
2013-11-12 15:07:52.730,139,13.9,52.16903,4.458807,46.13895,0,-1,46.90466,30,1384265241,-0.3514404,-0.5816498,-0.529953,14.85972,-25.99336,-64.8399,323.2602,322.9165,25,0.0.0.0,10.139.171.151,1,0
2013-11-12 15:07:52.937,140,14,52.16903,4.458807,46.13895,0,-1,46.90466,30,1384265241,-0.7588501,-0.9970551,-0.8945923,16.12652,-25.82883,-66.27545,323.3376,322.9939,25,0.0.0.0,10.139.171.151,1,0
2013-11-12 15:07:53.607,141,14.1,52.16903,4.458807,46.13895,0,-1,46.90466,30,1384265241,-0.06066895,-0.6913605,-0.5684509,15.35543,-28.6807,-64.5528,323.2615,322.9178,25,0.0.0.0,10.139.171.151,1,0
2013-11-12 15:07:53.871,142,14.2,52.16903,4.458807,46.13895,0,-1,46.90466,30,1384265241,-0.06066895,-0.6913605,-0.5684509,13.70308,-31.3132,-62.14108,321.6767,321.3329,25,0.0.0.0,10.139.171.151,1,0
2013-11-12 15:07:54.195,143,14.3,52.16903,4.458807,46.13895,0,-1,44.8137,30,1384265242,-0.4163818,-0.6013184,-0.5778656,13.20738,-32.24554,-60.82037,321.5188,321.1751,25,0.0.0.0,10.139.171.151,1,0
2013-11-12 15:07:54.322,144,14.4,52.16903,4.458807,46.13895,0,-1,44.8137,30,1384265242,-0.3785095,-0.5924225,-0.5923309,11.99566,-33.12305,-60.70554,321.5328,321.1891,25,0.0.0.0,10.139.171.151,1,0
2013-11-12 15:07:54.458,145,14.5,52.16903,4.458807,46.13895,0,-1,44.8137,30,1384265242,0.6043549,-1.545181,-1.019241,11.66519,-33.23273,-61.27975,321.582,321.2383,25,0.0.0.0,10.139.171.151,1,0
2013-11-12 15:07:54.635,146,14.6,52.16903,4.458807,46.13895,0,-1,44.8137,30,1384265242,1.081543,-0.3032532,-0.8531494,12.05074,-32.73914,-61.91139,321.6292,321.2855,25,0.0.0.0,10.139.171.151,1,0
2013-11-12 15:07:55.129,147,14.7,52.16903,4.458807,46.13895,0,-1,44.8137,30,1384265242,-0.5589752,-0.4053955,-0.5146942,12.38121,-32.30039,-60.99265,321.6753,321.3316,25,0.0.0.0,10.139.171.151,1,0
2013-11-12 15:07:55.326,148,14.8,52.16903,4.458807,46.13895,0,-1,44.8137,30,1384265242,-0.250473,-0.6165771,-0.6044312,12.49136,-31.53258,-62.94499,321.7232,321.3795,25,0.0.0.0,10.139.171.151,1,0
2013-11-12 15:07:55.468,149,14.9,52.16903,4.458807,46.13895,0,-1,44.8137,30,1384265242,-0.5773773,-0.5734711,-0.4451904,13.20738,-31.03898,-64.03601,321.7809,321.4372,25,0.0.0.0,10.139.171.151,1,0
2013-11-12 15:07:55.614,150,15,52.16903,4.458807,46.13895,0,-1,44.8137,30,1384265242,-0.428833,-0.7157288,-0.8317413,13.53785,-31.25835,-64.15085,321.8727,321.529,25,0.0.0.0,10.139.171.151,1,0
2013-11-12 15:07:55.756,151,15.1,52.16903,4.458807,46.13895,0,-1,44.8137,30,1384265242,-0.428833,-0.7157288,-0.8317413,12.32613,-32.02617,-62.54303,323.4052,323.0615,25,0.0.0.0,10.139.171.151,1,0
2013-11-12 15:07:55.895,152,15.2,52.16903,4.458807,46.13895,0,-1,44.8137,30,1384265242,0.1896515,-0.7114868,-0.9461365,11.99566,-33.01336,-61.05006,322.6392,322.2955,25,0.0.0.0,10.139.171.151,1,0
2013-11-12 15:07:55.985,153,15.3,52.16903,4.458807,46.13895,0,-1,44.8137,30,1384265242,-0.1879425,-0.671402,-0.9107361,11.77535,-33.78117,-61.39459,322.7804,322.4366,25,0.0.0.0,10.139.171.151,1,0
2013-11-12 15:07:56.257,154,15.4,52.16903,4.458807,46.13895,0,-1,44.8137,30,1384265242,-0.1879425,-0.671402,-0.9107361,11.55503,-34.21992,-60.24615,321.8953,321.5516,25,0.0.0.0,10.139.171.151,1,0
2013-11-12 15:07:56.409,155,15.5,52.16903,4.458807,46.13895,0,-1,44.8137,30,1384265242,-0.5228119,-0.7461548,-0.5077972,11.16949,-34.05539,-60.18874,321.9079,321.5642,25,0.0.0.0,10.139.171.151,1,0
2013-11-12 15:07:56.545,156,15.6,52.16903,4.458807,46.13895,0,-1,48.29856,30,1384265243,-0.5228119,-0.7461548,-0.5077972,11.27964,-33.28758,-60.87781,321.9453,321.6016,25,0.0.0.0,10.139.171.151,1,0
2013-11-12 15:07:56.699,157,15.7,52.16903,4.458807,46.13895,0,-1,48.29856,30,1384265243,-0.1680145,-0.6866913,-0.6117096,12.71168,-33.39727,-61.45203,321.9615,321.6178,25,0.0.0.0,10.139.171.151,1,0
2013-11-12 15:07:56.824,158,15.8,52.16903,4.458807,46.13895,0,-1,48.29856,30,1384265243,-0.2411499,-0.5958252,-0.6677399,12.71168,-33.72633,-60.76295,321.9572,321.6134,25,0.0.0.0,10.139.171.151,1,0
2013-11-12 15:07:56.959,159,15.9,52.16903,4.458807,46.13895,0,-1,48.29856,30,1384265243,-0.2411499,-0.5958252,-0.6677399,12.71168,-33.61664,-60.41843,321.9446,321.6009,25,0.0.0.0,10.139.171.151,1,0
2013-11-12 15:07:57.055,160,16,52.16903,4.458807,46.13895,0,-1,48.29856,30,1384265243,-0.3609924,-0.6550751,-0.7839203,13.26246,-33.17789,-60.41843,321.9192,321.5755,25,0.0.0.0,10.139.171.151,1,0
2013-11-12 15:07:57.289,161,16.1,52.16903,4.458807,46.13895,0,-1,48.29856,30,1384265243,0.1131439,-0.6755524,-0.8170471,14.36402,-33.72633,-60.30359,318.6996,318.3559,25,0.0.0.0,10.139.171.151,1,0
2013-11-12 15:07:57.388,162,16.2,52.16903,4.458807,46.13895,0,-1,48.29856,30,1384265243,-0.2606964,-0.640152,-0.7504425,14.14371,-33.83601,-60.53326,319.0313,318.6876,25,0.0.0.0,10.139.171.151,1,0
2013-11-12 15:07:57.488,163,16.3,52.16903,4.458807,46.13895,0,-1,48.29856,30,1384265243,-0.2909851,-0.571701,-0.486908,14.03355,-34.27477,-59.61452,319.3843,319.0406,25,0.0.0.0,10.139.171.151,1,0
2013-11-12 15:07:57.588,164,16.4,52.16903,4.458807,46.13895,0,-1,51.90884,30,1384265244,-0.4988556,-0.7030334,-0.5526123,13.31754,-34.32961,-60.01648,319.3637,319.02,25,0.0.0.0,10.139.171.151,1,0
2013-11-12 15:07:57.717,165,16.5,52.16903,4.458807,46.13895,0,-1,51.90884,30,1384265244,-0.4988556,-0.7030334,-0.5526123,14.69449,-33.61664,-59.49968,319.3159,318.9721,25,0.0.0.0,10.139.171.151,1,0
2013-11-12 15:07:57.784,166,16.6,52.16903,4.458807,46.13895,0,-1,51.90884,30,1384265244,-0.3697052,-0.7835388,-0.7427216,15.19019,-33.23273,-58.98288,319.2703,318.9266,25,0.0.0.0,10.139.171.151,1,0
2013-11-12 15:07:57.886,167,16.7,52.16903,4.458807,46.13895,0,-1,51.90884,30,1384265244,-0.4848022,-0.763504,-0.8337555,13.42769,-33.23273,-60.24615,319.2295,318.8858,25,0.0.0.0,10.139.171.151,1,0
2013-11-12 15:07:57.976,168,16.8,52.16903,4.458807,46.13895,0,-1,51.90884,30,1384265244,-0.337326,-0.5544586,-0.842514,12.93199,-33.0682,-60.64812,319.2626,318.9189,25,0.0.0.0,10.139.171.151,1,0
2013-11-12 15:07:58.190,169,16.9,52.16903,4.458807,46.13895,0,-1,51.90884,30,1384265244,-0.2588654,-0.5194702,-0.9094543,12.21597,-33.5618,-60.01648,319.3745,319.0308,25,0.0.0.0,10.139.171.151,1,0
2013-11-12 15:07:58.272,170,17,52.16903,4.458807,46.13895,0,-1,51.90884,30,1384265244,-0.2431946,-0.405838,-0.7354279,11.99566,-33.34242,-61.05006,319.5027,319.1589,25,0.0.0.0,10.139.171.151,1,0
2013-11-12 15:07:58.374,171,17.1,52.16903,4.458807,46.13895,0,-1,51.90884,30,1384265244,-0.1082458,-0.4447784,-0.52742,11.83043,-33.50695,-60.76295,321.1732,320.8295,25,0.0.0.0,10.139.171.151,1,0
2013-11-12 15:07:58.477,172,17.2,52.16903,4.458807,46.13895,0,-1,51.90884,30,1384265244,-0.2935333,-0.4797668,-0.5913239,12.49136,-33.72633,-60.87781,321.147,320.8033,25,0.0.0.0,10.139.171.151,1,0
2013-11-12 15:07:58.685,173,17.3,52.16903,4.458807,46.13895,0,-1,51.90884,30,1384265244,-0.2935333,-0.4797668,-0.5913239,11.44488,-33.45211,-60.36101,321.1144,320.7707,25,0.0.0.0,10.139.171.151,1,0
2013-11-12 15:07:58.759,174,17.4,52.16903,4.458807,46.13895,0,-1,51.90884,30,1384265244,-0.5061951,-0.5773163,-0.6065063,11.22457,-33.45211,-61.16492,321.1168,320.7731,25,0.0.0.0,10.139.171.151,1,0
2013-11-12 15:07:58.874,175,17.5,52.16903,4.458807,46.13895,0,-1,51.90884,30,1384265244,-0.4183655,-0.70578,-0.4627228,11.99566,-33.34242,-61.50945,321.0865,320.7428,25,0.0.0.0,10.139.171.151,1,0
2013-11-12 15:07:58.959,176,17.6,52.16903,4.458807,46.13895,0,-1,56.14703,30,1384265245,-0.2852478,-0.7409973,-0.4971619,10.8941,-34.00055,-60.70554,321.0601,320.7164,25,0.0.0.0,10.139.171.151,1,0
2013-11-12 15:07:59.098,177,17.7,52.16903,4.458807,46.13895,0,-1,56.14703,30,1384265245,-0.301712,-0.2841339,-0.8079987,10.45347,-34.32961,-60.93523,321.0416,320.6979,25,0.0.0.0,10.139.171.151,1,0
2013-11-12 15:07:59.363,178,17.8,52.16903,4.458807,46.13895,0,-1,56.14703,30,1384265245,-0.5626678,-0.7501221,-0.7133636,11.22457,-33.34242,-63.11725,321.0438,320.7001,25,0.0.0.0,10.139.171.151,1,0
2013-11-12 15:07:59.533,179,17.9,52.16903,4.458807,46.13895,0,-1,56.14703,30,1384265245,-0.6168213,-0.662323,-0.7430115,11.66519,-32.13586,-64.61023,323.356,323.0123,25,0.0.0.0,10.139.171.151,1,0
2013-11-12 15:07:59.803,180,18,52.16903,4.458807,46.13895,0,-1,56.14703,30,1384265245,-0.4077759,-0.6221466,-0.701416,11.22457,-31.36805,-65.98834,325.2969,324.9532,25,0.0.0.0,10.139.171.151,1,0
2013-11-12 15:07:59.972,181,18.1,52.16903,4.458807,46.13895,0,-1,56.14703,30,1384265245,-0.3451996,-0.7443237,-0.8916779,11.66519,-31.47773,-65.75867,325.1284,324.7847,25,0.0.0.0,10.139.171.151,1,0
2013-11-12 15:08:00.222,182,18.2,52.16903,4.458807,46.13895,0,-1,56.14703,30,1384265245,-0.4970093,-0.4936829,-0.7410583,11.88551,-30.70992,-65.8735,325.0446,324.7009,25,0.0.0.0,10.139.171.151,1,0
2013-11-12 15:08:00.435,183,18.3,52.16903,4.458807,46.13895,0,-1,56.14703,30,1384265245,-0.5888977,-0.6234436,-0.5940552,11.55503,-30.49055,-66.56256,324.5951,324.2513,25,0.0.0.0,10.139.171.151,1,0
2013-11-12 15:08:00.668,184,18.4,52.16903,4.458807,46.13895,0,-1,56.14703,30,1384265245,-0.2744751,-0.6230927,-0.7301025,12.05074,-29.66789,-67.19421,325.8236,325.4799,25,0.0.0.0,10.139.171.151,1,0
2013-11-12 15:08:00.802,185,18.5,52.16903,4.458807,46.13895,0,-1,56.14703,30,1384265245,-0.3511047,-0.4497375,-0.422226,11.72027,-30.32601,-66.84967,325.8135,325.4698,25,0.0.0.0,10.139.171.151,1,0
2013-11-12 15:08:01.052,186,18.6,52.16903,4.458807,46.13895,0,-1,17.18154,10,1384265246,-0.4030914,-0.4969635,-0.4632111,12.10582,-29.83242,-67.48132,325.8385,325.4948,25,0.0.0.0,10.139.171.151,1,0
2013-11-12 15:08:01.295,187,18.7,52.16903,4.458807,46.13895,0,-1,17.18154,10,1384265246,-0.4638519,-0.614624,-0.5332336,11.66519,-29.1743,-65.41412,325.8634,325.5197,25,0.0.0.0,10.139.171.151,1,0
2013-11-12 15:08:01.386,188,18.8,52.16903,4.458807,46.13895,0,-1,17.18154,10,1384265246,-0.4638519,-0.614624,-0.5332336,11.22457,-29.06461,-66.56256,326.8396,326.4958,25,0.0.0.0,10.139.171.151,1,0
2013-11-12 15:08:01.563,189,18.9,52.16903,4.458807,46.13895,0,-1,17.18154,10,1384265246,-0.4418945,-0.7823944,-0.5570526,10.72886,-29.77758,-67.99811,327.3032,326.9595,25,0.0.0.0,10.139.171.151,1,0
2013-11-12 15:08:01.691,190,19,52.16903,4.458807,46.13895,0,-1,17.18154,10,1384265246,-0.4264221,-0.7560425,-0.743988,11.55503,-28.18711,-68.7446,327.035,326.6913,25,0.0.0.0,10.139.171.151,1,0
2013-11-12 15:08:01.816,191,19.1,52.16903,4.458807,46.13895,0,-1,17.18154,10,1384265246,-0.4264221,-0.7560425,-0.743988,11.61012,-28.24195,-66.96452,326.1541,325.8104,25,0.0.0.0,10.139.171.151,1,0
2013-11-12 15:08:01.927,192,19.2,52.16903,4.458807,46.13895,0,-1,17.18154,10,1384265246,-0.2778168,-0.7659454,-0.7550507,11.66519,-28.07742,-67.59616,325.7086,325.3649,25,0.0.0.0,10.139.171.151,1,0
2013-11-12 15:08:02.186,193,19.3,52.16903,4.458807,46.13895,0,-1,17.18154,10,1384265246,-0.1992035,-0.4483337,-0.5822906,11.72027,-28.79039,-67.30905,325.6942,325.3505,25,0.0.0.0,10.139.171.151,1,0
2013-11-12 15:08:02.311,194,19.4,52.16903,4.458807,46.13895,0,-1,17.18154,10,1384265246,-0.1992035,-0.4483337,-0.5822906,10.78394,-28.84523,-67.36647,327.2996,326.9558,25,0.0.0.0,10.139.171.151,1,0
2013-11-12 15:08:02.386,195,19.5,52.16903,4.458807,46.13895,0,-1,17.50496,10,1384265247,-0.4125671,-0.5724792,-0.5136871,10.78394,-29.39367,-67.25163,330.1672,329.8235,25,0.0.0.0,10.139.171.151,1,0
2013-11-12 15:08:02.504,196,19.6,52.16903,4.458807,46.13895,0,-1,17.50496,10,1384265247,-0.5978088,-0.6506042,-0.5911102,11.61012,-29.44851,-67.42389,330.9111,330.5674,25,0.0.0.0,10.139.171.151,1,0
2013-11-12 15:08:02.599,197,19.7,52.16903,4.458807,46.13895,0,-1,17.50496,10,1384265247,-0.5352478,-0.479538,-0.557251,12.38121,-30.10664,-67.30905,330.4766,330.1328,25,0.0.0.0,10.139.171.151,1,0
2013-11-12 15:08:02.671,198,19.8,52.16903,4.458807,46.13895,0,-1,17.50496,10,1384265247,-0.5352478,-0.479538,-0.557251,12.1609,-30.21633,-66.73483,331.0211,330.6774,25,0.0.0.0,10.139.171.151,1,0
2013-11-12 15:08:02.769,199,19.9,52.16903,4.458807,46.13895,0,-1,17.50496,10,1384265247,-0.3257904,-0.452179,-0.7482758,11.66519,-29.72273,-67.13678,331.6481,331.3044,25,0.0.0.0,10.139.171.151,1,0
2013-11-12 15:08:02.876,200,20,52.16903,4.458807,46.13895,0,-1,17.50496,10,1384265247,-0.375351,-0.7359009,-0.7817993,12.38121,-30.76477,-67.19421,330.994,330.6502,25,0.0.0.0,10.139.171.151,1,0
2013-11-12 15:08:02.956,201,20.1,52.16903,4.458807,46.13895,0,-1,17.50496,10,1384265247,-0.3907471,-0.7063446,-0.6816559,12.60152,-30.43571,-66.96452,330.446,330.1023,25,0.0.0.0,10.139.171.151,1,0
2013-11-12 15:08:03.112,202,20.2,52.16903,4.458807,46.13895,0,-1,17.50496,10,1384265247,-0.467926,-0.701828,-0.4561005,11.94058,-29.99695,-66.96452,327.9788,327.6351,25,0.0.0.0,10.139.171.151,1,0
2013-11-12 15:08:03.250,203,20.3,52.16903,4.458807,46.13895,0,-1,17.50496,10,1384265247,-0.4219818,-0.7172241,-0.6554871,11.22457,-29.06461,-67.13678,327.4019,327.0581,25,0.0.0.0,10.139.171.151,1,0
2013-11-12 15:08:03.352,204,20.4,52.16903,4.458807,46.13895,0,-1,17.50496,10,1384265247,-0.4219818,-0.7172241,-0.6554871,10.67379,-31.25836,-67.711,326.5803,326.2366,25,0.0.0.0,10.139.171.151,1,0
2013-11-12 15:08:03.489,205,20.5,52.16903,4.458807,46.13895,0,-1,17.50496,10,1384265247,-0.2385559,-0.6990051,-0.7248993,12.05074,-32.41008,-65.70123,323.2665,322.9228,25,0.0.0.0,10.139.171.151,1,0
2013-11-12 15:08:03.585,206,20.6,52.16903,4.458807,46.13895,0,-1,17.50496,10,1384265247,-0.3143768,-0.72052,-0.6754913,13.31754,-32.24554,-67.25163,322.4923,322.1486,25,0.0.0.0,10.139.171.151,1,0
2013-11-12 15:08:03.715,207,20.7,52.16903,4.458807,46.13895,0,-1,17.62723,10,1384265248,-0.5007629,-0.602066,-0.6297913,13.37261,-32.84882,-67.30905,323.1385,322.7948,25,0.0.0.0,10.139.171.151,1,0
2013-11-12 15:08:03.791,208,20.8,52.16903,4.458807,46.13895,0,-1,17.62723,10,1384265248,-0.4662018,-0.5865326,-0.7825317,14.14371,-33.61664,-65.3567,325.1254,324.7816,25,0.0.0.0,10.139.171.151,1,0
2013-11-12 15:08:03.889,209,20.9,52.16903,4.458807,46.13895,0,-1,17.62723,10,1384265248,-0.2837372,-0.7289886,-0.679245,15.02496,-33.39727,-66.96452,325.1805,324.8368,25,0.0.0.0,10.139.171.151,1,0
2013-11-12 15:08:04.095,210,21,52.16903,4.458807,46.13895,0,-1,17.62723,10,1384265248,-0.3773651,-0.6666412,-0.4743347,14.69449,-33.61664,-66.73483,324.7556,324.4118,25,0.0.0.0,10.139.171.151,1,0
2013-11-12 15:08:04.275,211,21.1,52.16903,4.458807,46.13895,0,-1,17.62723,10,1384265248,-0.3773651,-0.6666412,-0.4743347,14.4191,-33.89086,-67.13678,324.5994,324.2557,25,0.0.0.0,10.139.171.151,1,0
2013-11-12 15:08:04.415,212,21.2,52.16903,4.458807,46.13895,0,-1,17.62723,10,1384265248,-0.4286346,-0.7161865,-0.6652222,15.02496,-32.62945,-67.30905,323.7964,323.4527,25,0.0.0.0,10.139.171.151,1,0
2013-11-12 15:08:04.498,213,21.3,52.16903,4.458807,46.13895,0,-1,17.62723,10,1384265248,-0.1933136,-0.7224579,-0.7304993,14.03355,-32.95852,-67.19421,323.3649,323.0212,25,0.0.0.0,10.139.171.151,1,0
2013-11-12 15:08:04.636,214,21.4,52.16903,4.458807,46.13895,0,-1,17.62723,10,1384265248,-0.2614899,-0.699295,-0.6987152,13.04214,-32.84883,-67.19421,322.7474,322.4037,25,0.0.0.0,10.139.171.151,1,0
2013-11-12 15:08:04.882,215,21.5,52.16903,4.458807,46.13895,0,-1,17.62723,10,1384265248,-0.1369019,-0.6708221,-0.8443298,13.59293,-33.0682,-67.42389,321.691,321.3473,25,0.0.0.0,10.139.171.151,1,0
2013-11-12 15:08:05.003,216,21.6,52.16903,4.458807,46.13895,0,-1,17.62723,10,1384265248,-0.2696838,-0.604538,-0.8294373,13.97847,-33.12305,-67.25163,318.3533,318.0096,25,0.0.0.0,10.139.171.151,1,0
2013-11-12 15:08:05.262,217,21.7,52.16903,4.458807,46.13895,0,-1,57,30,1384265249,-0.4529877,-0.5006256,-0.765213,14.30894,-33.12305,-67.711,317.6977,317.3539,25,0.0.0.0,10.139.171.151,1,0
2013-11-12 15:08:05.406,218,21.8,52.16903,4.458807,46.13895,0,-1,57,30,1384265249,-0.822525,-0.6521301,-1.148865,14.25386,-33.61664,-67.30905,317.7495,317.4058,25,0.0.0.0,10.139.171.151,1,0
2013-11-12 15:08:05.499,219,21.9,52.16903,4.458807,46.13895,0,-1,57,30,1384265249,-0.8195953,-0.6860352,-0.7846527,14.36402,-33.50695,-67.76843,317.862,317.5183,25,0.0.0.0,10.139.171.151,1,0
2013-11-12 15:08:05.598,220,22,52.16903,4.458807,46.13895,0,-1,57,30,1384265249,-0.8195953,-0.6860352,-0.7846527,15.13511,-33.0682,-68.2278,317.9578,317.6141,25,0.0.0.0,10.139.171.151,1,0
2013-11-12 15:08:05.712,221,22.1,52.16903,4.458807,46.13895,0,-1,57,30,1384265249,-0.3036804,-0.6212311,-0.5880737,15.57574,-33.61664,-68.45749,318.1352,317.7915,25,0.0.0.0,10.139.171.151,1,0
2013-11-12 15:08:05.785,222,22.2,52.16903,4.458807,46.13895,0,-1,57,30,1384265249,-0.05863953,-0.6420898,-0.8431244,14.80465,-33.9457,-68.11296,318.2552,317.9114,25,0.0.0.0,10.139.171.151,1,0
2013-11-12 15:08:05.918,223,22.3,52.16903,4.458807,46.13895,0,-1,57,30,1384265249,-0.6192169,-0.6100159,-0.4725037,15.30035,-34.76836,-67.02194,318.7694,318.4257,25,0.0.0.0,10.139.171.151,1,0
2013-11-12 15:08:06.029,224,22.4,52.16903,4.458807,46.13895,0,-1,57,30,1384265249,-0.3773041,-0.6582336,-0.7362671,15.52066,-33.89086,-68.17038,318.9503,318.6066,25,0.0.0.0,10.139.171.151,1,0
2013-11-12 15:08:06.201,225,22.5,52.16903,4.458807,46.13895,0,-1,57,30,1384265249,-0.07267761,-0.7636108,-0.9139404,15.30035,-33.78117,-68.05554,319.1555,318.8117,25,0.0.0.0,10.139.171.151,1,0
2013-11-12 15:08:06.304,226,22.6,52.16903,4.458807,46.13895,0,-1,18.80749,10,1384265250,-0.3056183,-0.6565552,-0.8255615,15.46558,-33.50695,-68.45749,319.2378,318.8941,25,0.0.0.0,10.139.171.151,1,0
2013-11-12 15:08:06.403,227,22.7,52.16903,4.458807,46.13895,0,-1,18.80749,10,1384265250,-0.6113434,-0.6461487,-0.5619659,15.35543,-33.50695,-67.88327,319.3276,318.9839,25,0.0.0.0,10.139.171.151,1,0
2013-11-12 15:08:06.512,228,22.8,52.16903,4.458807,46.13895,0,-1,18.80749,10,1384265250,-0.6113434,-0.6461487,-0.5619659,14.30894,-33.34242,-69.20398,319.4496,319.1059,25,0.0.0.0,10.139.171.151,1,0
2013-11-12 15:08:06.586,229,22.9,52.16903,4.458807,46.13895,0,-1,18.80749,10,1384265250,-0.2503357,-0.6822205,-0.730835,14.03355,-32.84883,-69.2614,319.5934,319.2497,25,0.0.0.0,10.139.171.151,1,0
2013-11-12 15:08:06.684,230,23,52.16903,4.458807,46.13895,0,-1,18.80749,10,1384265250,-0.2503357,-0.6822205,-0.730835,14.36402,-32.95852,-68.45749,319.8729,319.5292,25,0.0.0.0,10.139.171.151,1,0
2013-11-12 15:08:06.775,231,23.1,52.16903,4.458807,46.13895,0,-1,18.80749,10,1384265250,-0.5428772,-0.7633514,-0.3988037,13.86832,-33.34242,-68.17038,319.9965,319.6528,25,0.0.0.0,10.139.171.151,1,0
2013-11-12 15:08:06.873,232,23.2,52.16903,4.458807,46.13895,0,-1,18.80749,10,1384265250,-0.5428772,-0.7633514,-0.3988037,13.48277,-33.17789,-68.11296,320.1297,319.786,25,0.0.0.0,10.139.171.151,1,0
2013-11-12 15:08:06.981,233,23.3,52.16903,4.458807,46.13895,0,-1,18.80749,10,1384265250,-1.938736,-0.5707703,-0.3288422,12.87691,-33.78117,-65.29929,320.4077,320.064,25,0.0.0.0,10.139.171.151,1,0
2013-11-12 15:08:07.193,234,23.4,52.16903,4.458807,46.13895,0,-1,18.80749,10,1384265250,-0.6088715,-0.4809875,-0.8807526,12.87691,-33.56179,-65.52898,320.6697,320.326,25,0.0.0.0,10.139.171.151,1,0
2013-11-12 15:08:07.292,235,23.5,52.16903,4.458807,46.13895,0,-1,18.80749,10,1384265250,1.972076,-1.436172,-1.415253,12.98707,-34.21992,-65.18445,320.9025,320.5587,25,0.0.0.0,10.139.171.151,1,0
2013-11-12 15:08:07.370,236,23.6,52.16903,4.458807,46.13895,0,-1,18.80749,10,1384265250,0.8514099,-1.049927,-0.7148438,12.82183,-34.71352,-65.01218,321.0098,320.6661,25,0.0.0.0,10.139.171.151,1,0
2013-11-12 15:08:07.482,237,23.7,52.16903,4.458807,46.13895,0,-1,18.80749,10,1384265250,-1.381699,-0.6864471,-0.5493164,12.38121,-34.16508,-65.5864,321.1388,320.7951,25,0.0.0.0,10.139.171.151,1,0
2013-11-12 15:08:07.555,238,23.8,52.16903,4.458807,46.13895,0,-1,18.80749,10,1384265250,-0.9702911,-0.718811,-0.5232697,12.32613,-34.54898,-65.41412,321.2603,320.9165,25,0.0.0.0,10.139.171.151,1,0
2013-11-12 15:08:07.657,239,23.9,52.16903,4.458807,46.13895,0,-1,18.80749,10,1384265250,-0.9702911,-0.718811,-0.5232697,12.38121,-35.04258,-65.12701,321.3725,321.0287,25,0.0.0.0,10.139.171.151,1,0
2013-11-12 15:08:07.765,240,24,52.16903,4.458807,46.13895,0,-1,18.80749,10,1384265250,-0.07527161,-0.7931061,-0.828186,12.38121,-33.9457,-65.81609,321.5389,321.1952,25,0.0.0.0,10.139.171.151,1,0
2013-11-12 15:08:07.847,241,24.1,52.16903,4.458807,46.13895,0,-1,57,30,1384265251,-0.07527161,-0.7931061,-0.828186,12.10582,-33.78117,-65.8735,321.8461,321.5024,25,0.0.0.0,10.139.171.151,1,0
2013-11-12 15:08:08.026,242,24.2,52.16903,4.458807,46.13895,0,-1,57,30,1384265251,-0.2571106,-0.5996552,-0.6940765,11.77535,-33.45211,-65.41412,322.2411,321.8974,25,0.0.0.0,10.139.171.151,1,0
2013-11-12 15:08:08.220,243,24.3,52.16903,4.458807,46.13895,0,-1,57,30,1384265251,-0.3937531,-0.5864258,-0.6099396,11.88551,-34.00055,-65.8735,324.295,323.9513,25,0.0.0.0,10.139.171.151,1,0
2013-11-12 15:08:08.427,244,24.4,52.16903,4.458807,46.13895,0,-1,57,30,1384265251,-0.3456879,-0.5716248,-0.3790588,11.00425,-32.35523,-65.64381,323.0538,322.7101,25,0.0.0.0,10.139.171.151,1,0
2013-11-12 15:08:08.507,245,24.5,52.16903,4.458807,46.13895,0,-1,57,30,1384265251,-0.3456879,-0.5716248,-0.3790588,10.01285,-32.90367,-65.0696,322.8755,322.5317,25,0.0.0.0,10.139.171.151,1,0
2013-11-12 15:08:08.605,246,24.6,52.16903,4.458807,46.13895,0,-1,57,30,1384265251,-0.4331818,-0.5922852,-0.6977081,10.123,-34.21992,-65.18445,322.4676,322.1239,25,0.0.0.0,10.139.171.151,1,0
2013-11-12 15:08:08.686,247,24.7,52.16903,4.458807,46.13895,0,-1,57,30,1384265251,0.06834412,-0.7342224,-0.9173431,9.517143,-34.16508,-65.5864,322.1882,321.8445,25,0.0.0.0,10.139.171.151,1,0
2013-11-12 15:08:08.785,248,24.8,52.16903,4.458807,46.13895,0,-1,57,30,1384265251,0.06834412,-0.7342224,-0.9173431,9.6273,-33.28758,-65.3567,321.5211,321.1773,25,0.0.0.0,10.139.171.151,1,0
2013-11-12 15:08:08.898,249,24.9,52.16903,4.458807,46.13895,0,-1,57,30,1384265252,-0.1661987,-0.6315002,-0.4473267,9.40699,-33.28758,-65.3567,321.343,320.9993,25,0.0.0.0,10.139.171.151,1,0
2013-11-12 15:08:08.979,250,25,52.16903,4.458807,46.13895,0,-1,57,30,1384265252,-0.1661987,-0.6315002,-0.4473267,9.35191,-33.01336,-65.64381,320.9886,320.6449,25,0.0.0.0,10.139.171.151,1,0
2013-11-12 15:08:09.107,251,25.1,52.16903,4.458807,46.13895,0,-1,57,30,1384265252,-0.9876709,-0.6871338,-0.6227112,8.635895,-33.0682,-65.01218,320.4659,320.1222,25,0.0.0.0,10.139.171.151,1,0
2013-11-12 15:08:09.250,252,25.2,52.16903,4.458807,46.13895,0,-1,57,30,1384265252,-0.1438141,-0.5758514,-0.8397217,8.030037,-31.91648,-65.8735,319.5539,319.2102,25,0.0.0.0,10.139.171.151,1,0
2013-11-12 15:08:09.348,253,25.3,52.16903,4.458807,46.13895,0,-1,57,30,1384265252,-0.1759796,-0.5887604,-0.6051941,8.030037,-32.02617,-65.64381,319.2231,318.8794,25,0.0.0.0,10.139.171.151,1,0
2013-11-12 15:08:09.524,254,25.4,52.16903,4.458807,46.13895,0,-1,57,30,1384265252,-0.1223907,-0.6361542,-0.6506195,7.314018,-31.97132,-65.70123,318.1827,317.839,25,0.0.0.0,10.139.171.151,1,0
2013-11-12 15:08:09.619,255,25.5,52.16903,4.458807,46.13895,0,-1,57,30,1384265252,-0.1223907,-0.6361542,-0.6506195,7.479256,-32.02617,-68.85944,317.5482,317.2044,25,0.0.0.0,10.139.171.151,1,0
2013-11-12 15:08:09.800,256,25.6,52.16903,4.458807,46.13895,0,-1,57,30,1384265252,-0.1808777,-0.6770477,-0.7607574,7.038628,-31.8068,-69.08913,312.7081,312.3644,25,0.0.0.0,10.139.171.151,1,0
2013-11-12 15:08:09.908,257,25.7,52.16903,4.458807,46.13895,0,-1,57,30,1384265252,-0.06576538,-0.6587982,-0.6513062,6.818317,-31.47773,-68.97429,312.7222,312.3785,25,0.0.0.0,10.139.171.151,1,0
2013-11-12 15:08:09.989,258,25.8,52.16903,4.458807,46.13895,0,-1,57,30,1384265252,-0.2437744,-0.6485291,-0.6637268,6.928474,-32.13586,-68.28522,312.7148,312.3711,25,0.0.0.0,10.139.171.151,1,0
2013-11-12 15:08:10.212,259,25.9,52.16903,4.458807,46.13895,0,-1,57,30,1384265252,-0.1974792,-0.6645966,-0.9370728,6.928474,-31.14867,-69.43365,314.5606,314.2169,25,0.0.0.0,10.139.171.151,1,0
2013-11-12 15:08:10.289,260,26,52.16903,4.458807,46.13895,0,-1,57,30,1384265253,-0.4092712,-0.6135559,-0.6186981,9.021442,-31.69711,-70.58209,316.2984,315.9547,25,0.0.0.0,10.139.171.151,1,0
2013-11-12 15:08:10.454,261,26.1,52.16903,4.458807,46.13895,0,-1,57,30,1384265253,-0.1632843,-0.6820831,-0.6321564,9.737457,-32.41008,-68.57233,317.2119,316.8682,25,0.0.0.0,10.139.171.151,1,0
2013-11-12 15:08:10.631,262,26.2,52.16903,4.458807,46.13895,0,-1,57,30,1384265253,-0.170578,-0.7068787,-0.5785828,8.030037,-31.36805,-68.85944,320.7996,320.4559,25,0.0.0.0,10.139.171.151,1,0
2013-11-12 15:08:10.729,263,26.3,52.16903,4.458807,46.13895,0,-1,57,30,1384265253,-0.2168732,-0.7420502,-0.6808777,10.17808,-31.3132,-68.11296,321.3021,320.9584,25,0.0.0.0,10.139.171.151,1,0
2013-11-12 15:08:10.808,264,26.4,52.16903,4.458807,46.13895,0,-1,57,30,1384265253,-0.3327179,-0.6467896,-0.5579529,10.01285,-31.69711,-67.711,322.0522,321.7085,25,0.0.0.0,10.139.171.151,1,0
2013-11-12 15:08:11.028,265,26.5,52.16903,4.458807,46.13895,0,-1,57,30,1384265253,-0.317215,-0.7064209,-0.745636,11.27964,-32.73914,-67.99811,321.2654,320.9217,25,0.0.0.0,10.139.171.151,1,0
2013-11-12 15:08:11.227,266,26.6,52.16903,4.458807,46.13895,0,-1,57,30,1384265253,-0.2674408,-0.7285919,-0.7093658,11.05933,-33.50695,-67.19421,321.1259,320.7821,25,0.0.0.0,10.139.171.151,1,0
2013-11-12 15:08:11.343,267,26.7,52.16903,4.458807,46.13895,0,-1,57,30,1384265253,-0.2674408,-0.7285919,-0.7093658,11.3898,-32.84882,-67.07936,320.8802,320.5365,25,0.0.0.0,10.139.171.151,1,0
2013-11-12 15:08:11.543,268,26.8,52.16903,4.458807,46.13895,0,-1,57,30,1384265253,-0.2050781,-0.687851,-0.8221436,11.61012,-32.95852,-68.68718,320.5864,320.2426,25,0.0.0.0,10.139.171.151,1,0
2013-11-12 15:08:11.652,269,26.9,52.16903,4.458807,46.13895,0,-1,57,30,1384265254,-0.4480896,0.0735321,-1.130798,11.66519,-33.34242,-70.12273,318.024,317.6803,25,0.0.0.0,10.139.171.151,1,0
2013-11-12 15:08:11.748,270,27,52.16903,4.458807,46.13895,0,-1,57,30,1384265254,-0.09576416,-0.9214478,-0.910675,11.22457,-33.5618,-69.66335,317.9894,317.6457,25,0.0.0.0,10.139.171.151,1,0
2013-11-12 15:08:11.908,271,27.1,52.16903,4.458807,46.13895,0,-1,57,30,1384265254,0.101593,-0.5592194,-0.9449158,11.66519,-33.23273,-70.58209,318.1076,317.7639,25,0.0.0.0,10.139.171.151,1,0
2013-11-12 15:08:12.005,272,27.2,52.16903,4.458807,46.13895,0,-1,57,30,1384265254,0.07554626,-0.5813599,-0.7502594,11.3898,-33.39727,-70.63953,318.2469,317.9032,25,0.0.0.0,10.139.171.151,1,0
2013-11-12 15:08:12.211,273,27.3,52.16903,4.458807,46.13895,0,-1,57,30,1384265254,-0.130722,-0.5906525,-0.7160034,11.55503,-34.32961,-69.89304,318.5198,318.1761,25,0.0.0.0,10.139.171.151,1,0
2013-11-12 15:08:12.306,274,27.4,52.16903,4.458807,46.13895,0,-1,57,30,1384265254,-0.130722,-0.5906525,-0.7160034,10.34332,-34.54898,-70.81178,318.7975,318.4538,25,0.0.0.0,10.139.171.151,1,0
2013-11-12 15:08:12.392,275,27.5,52.16903,4.458807,46.13895,0,-1,57,30,1384265254,-0.137085,-0.5453644,-0.8018188,10.83902,-34.16508,-72.01764,318.995,318.6513,25,0.0.0.0,10.139.171.151,1,0
2013-11-12 15:08:12.505,276,27.6,52.16903,4.458807,46.13895,0,-1,57,30,1384265254,0.0960083,-0.660141,-1.094635,11.72027,-33.50695,-71.9028,319.151,318.8073,25,0.0.0.0,10.139.171.151,1,0
2013-11-12 15:08:12.587,277,27.7,52.16903,4.458807,46.13895,0,-1,57,30,1384265254,-0.2870483,-0.4383698,-0.9730377,12.60152,-33.39726,-70.8692,321.2198,320.8761,25,0.0.0.0,10.139.171.151,1,0
2013-11-12 15:08:12.689,278,27.8,52.16903,4.458807,46.13895,0,-1,57,30,1384265254,-0.1841736,-0.1847076,-1.011292,13.26246,-33.83601,-68.57233,321.128,320.7843,25,0.0.0.0,10.139.171.151,1,0
2013-11-12 15:08:12.791,279,27.9,52.16903,4.458807,46.13895,0,-1,57,30,1384265254,-0.09912109,-0.6916656,-0.6873779,13.20738,-34.11024,-68.05554,321.5614,321.2177,25,0.0.0.0,10.139.171.151,1,0
2013-11-12 15:08:12.896,280,28,52.16903,4.458807,46.13895,0,-1,57,30,1384265254,-0.4258575,-0.6786804,-0.8327789,13.53785,-34.65867,-68.85944,322.0834,321.7397,25,0.0.0.0,10.139.171.151,1,0
2013-11-12 15:08:12.975,281,28.1,52.16903,4.458807,46.13895,0,-1,57,30,1384265254,-0.4258575,-0.6786804,-0.8327789,15.30035,-36.08461,-68.51491,320.3773,320.0336,25,0.0.0.0,10.139.171.151,1,0
2013-11-12 15:08:13.175,282,28.2,52.16903,4.458807,46.13895,0,-1,57,30,1384265254,-0.2973633,-0.4085999,-0.7288055,14.69449,-36.46851,-68.57233,319.8726,319.5289,25,0.0.0.0,10.139.171.151,1,0
2013-11-12 15:08:13.256,283,28.3,52.16903,4.458807,46.13895,0,-1,85.16163,50,1384265255,-0.2169647,-0.4606781,-0.7984619,14.03355,-36.68789,-68.45749,317.7967,317.453,25,0.0.0.0,10.139.171.151,1,0
2013-11-12 15:08:13.382,284,28.4,52.16903,4.458807,46.13895,0,-1,85.16163,50,1384265255,-0.3509827,-0.5301056,-0.8844757,13.26246,-36.57821,-68.2278,318.5365,318.1927,25,0.0.0.0,10.139.171.151,1,0
2013-11-12 15:08:13.480,285,28.5,52.16903,4.458807,46.13895,0,-1,85.16163,50,1384265255,-0.4013519,-0.4255981,-0.7846832,14.9148,-35.92008,-66.62,318.5373,318.1936,25,0.0.0.0,10.139.171.151,1,0
2013-11-12 15:08:13.557,286,28.6,52.16903,4.458807,46.13895,0,-1,85.16163,50,1384265255,-0.4642944,-0.3960266,-0.6779175,14.74957,-35.86523,-66.79225,317.5304,317.1867,25,0.0.0.0,10.139.171.151,1,0
2013-11-12 15:08:13.673,287,28.7,52.16903,4.458807,46.13895,0,-1,85.16163,50,1384265255,-0.3694916,-0.4000397,-0.8050537,15.13511,-36.57821,-66.96452,316.6714,316.3276,25,0.0.0.0,10.139.171.151,1,0
2013-11-12 15:08:13.784,288,28.8,52.16903,4.458807,46.13895,0,-1,85.16163,50,1384265255,-0.2048492,-0.3707275,-0.7674713,15.4105,-35.97492,-68.28522,316.5623,316.2186,25,0.0.0.0,10.139.171.151,1,0
2013-11-12 15:08:14.050,289,28.9,52.16903,4.458807,46.13895,0,-1,85.16163,50,1384265255,-0.4237518,-0.3689728,-0.9484711,15.46558,-35.7007,-68.2278,316.5862,316.2425,25,0.0.0.0,10.139.171.151,1,0
2013-11-12 15:08:14.275,290,29,52.16903,4.458807,46.13895,0,-1,85.16163,50,1384265255,-0.4762878,-0.4665527,-0.8306122,16.73238,-35.64586,-65.41412,315.7915,315.4478,25,0.0.0.0,10.139.171.151,1,0
2013-11-12 15:08:14.367,291,29.1,52.16903,4.458807,46.13895,0,-1,85.16163,50,1384265255,-0.4762878,-0.4665527,-0.8306122,17.61363,-35.3168,-65.0696,312.3459,312.0021,25,0.0.0.0,10.139.171.151,1,0
2013-11-12 15:08:14.479,292,29.2,52.16903,4.458807,46.13895,0,-1,85.16163,50,1384265255,-0.3648529,-0.3251801,-0.7302551,18.60503,-35.3168,-64.03601,309.7628,309.4191,25,0.0.0.0,10.139.171.151,1,0
2013-11-12 15:08:14.559,293,29.3,52.16903,4.458807,46.13895,0,-1,85.16163,50,1384265255,-0.2615204,-0.4142761,-0.8474274,19.15582,-36.1943,-63.00241,308.1425,307.7988,25,0.0.0.0,10.139.171.151,1,0
2013-11-12 15:08:14.676,294,29.4,52.16903,4.458807,46.13895,0,-1,85.16163,50,1384265255,-0.2751007,-0.4406128,-0.869812,19.32105,-36.02976,-62.60046,308.4075,308.0638,25,0.0.0.0,10.139.171.151,1,0
2013-11-12 15:08:14.753,295,29.5,52.16903,4.458807,46.13895,0,-1,85.16163,50,1384265255,-0.3627472,-0.4629059,-0.9343567,19.48629,-35.64586,-63.00241,310.103,309.7593,25,0.0.0.0,10.139.171.151,1,0
2013-11-12 15:08:14.875,296,29.6,52.16903,4.458807,46.13895,0,-1,85.16163,50,1384265255,-0.3302917,-0.337616,-0.9520874,21.24879,-35.64586,-62.77272,309.8279,309.4841,25,0.0.0.0,10.139.171.151,1,0
2013-11-12 15:08:14.959,297,29.7,52.16903,4.458807,46.13895,0,-1,19,10,1384265256,-0.2076111,-0.3717651,-0.9972687,21.52418,-36.79757,-62.25592,309.6469,309.3032,25,0.0.0.0,10.139.171.151,1,0
2013-11-12 15:08:15.126,298,29.8,52.16903,4.458807,46.13895,0,-1,19,10,1384265256,-0.2076111,-0.3717651,-0.9972687,22.07496,-37.34601,-60.87781,309.2695,308.9258,25,0.0.0.0,10.139.171.151,1,0
2013-11-12 15:08:15.265,299,29.9,52.16903,4.458807,46.13895,0,-1,19,10,1384265256,-0.182373,-0.3574066,-0.7586823,21.74449,-37.01695,-60.41843,307.3426,306.9989,25,0.0.0.0,10.139.171.151,1,0
2013-11-12 15:08:15.434,300,30,52.16903,4.458807,46.13895,0,-1,19,10,1384265256,-0.2419128,-0.4326324,-0.8862457,22.68082,-36.74273,-61.85397,307.3652,307.0215,25,0.0.0.0,10.139.171.151,1,0
2013-11-12 15:08:15.634,301,30.1,52.16903,4.458807,46.13895,0,-1,19,10,1384265256,-0.1703949,-0.3596802,-0.8764191,22.84605,-37.01695,-58.92546,305.7565,305.4128,25,0.0.0.0,10.139.171.151,1,0
2013-11-12 15:08:15.803,302,30.2,52.16903,4.458807,46.13895,0,-1,19,10,1384265256,-0.05574036,-0.3610077,-0.9869537,22.4605,-38.60742,-59.44226,305.8697,305.5259,25,0.0.0.0,10.139.171.151,1,0
2013-11-12 15:08:16.028,303,30.3,52.16903,4.458807,46.13895,0,-1,19,10,1384265256,-0.1186523,-0.4370575,-0.9967346,23.2316,-37.51054,-59.90163,305.635,305.2913,25,0.0.0.0,10.139.171.151,1,0
2013-11-12 15:08:16.207,304,30.4,52.16903,4.458807,46.13895,0,-1,19,10,1384265256,-0.1186523,-0.4370575,-0.9967346,24.27808,-37.67508,-60.30359,305.7744,305.4307,25,0.0.0.0,10.139.171.151,1,0
2013-11-12 15:08:16.302,305,30.5,52.16903,4.458807,46.13895,0,-1,19,10,1384265256,0.09396362,-0.387085,-1.164474,24.44332,-38.05898,-59.78679,305.8585,305.5148,25,0.0.0.0,10.139.171.151,1,0
2013-11-12 15:08:16.404,306,30.6,52.16903,4.458807,46.13895,0,-1,19,10,1384265256,0.08183289,-0.2883148,-1.077133,24.27808,-38.00414,-59.49968,305.8773,305.5335,25,0.0.0.0,10.139.171.151,1,0
2013-11-12 15:08:16.502,307,30.7,52.16903,4.458807,46.13895,0,-1,57,30,1384265257,-0.2654114,-0.3607941,-0.883606,24.33316,-38.71711,-59.32741,305.9123,305.5685,25,0.0.0.0,10.139.171.151,1,0
2013-11-12 15:08:16.605,308,30.8,52.16903,4.458807,46.13895,0,-1,57,30,1384265257,-0.3485565,-0.4499817,-0.7717438,24.44332,-38.49773,-60.82037,306.0556,305.7119,25,0.0.0.0,10.139.171.151,1,0
2013-11-12 15:08:16.702,309,30.9,52.16903,4.458807,46.13895,0,-1,57,30,1384265257,-0.3502808,-0.5054016,-0.7423859,24.66363,-38.05898,-61.85397,306.2468,305.9031,25,0.0.0.0,10.139.171.151,1,0
2013-11-12 15:08:16.800,310,31,52.16903,4.458807,46.13895,0,-1,57,30,1384265257,-0.2861023,-0.3954773,-0.7667694,24.05777,-37.56539,-62.14108,308.8862,308.5425,25,0.0.0.0,10.139.171.151,1,0
2013-11-12 15:08:16.907,311,31.1,52.16903,4.458807,46.13895,0,-1,57,30,1384265257,-0.2243042,-0.3965454,-0.9651184,23.7273,-37.23633,-60.76295,309.2829,308.9391,25,0.0.0.0,10.139.171.151,1,0
2013-11-12 15:08:17.018,312,31.2,52.16903,4.458807,46.13895,0,-1,57,30,1384265257,-0.8146515,-0.3642578,-0.7445679,23.83746,-36.68789,-60.76295,309.6211,309.2774,25,0.0.0.0,10.139.171.151,1,0
2013-11-12 15:08:17.186,313,31.3,52.16903,4.458807,46.13895,0,-1,57,30,1384265257,-0.3445129,-0.6149902,-0.6340179,23.45191,-35.86523,-62.54303,311.3167,310.973,25,0.0.0.0,10.139.171.151,1,0
2013-11-12 15:08:17.311,314,31.4,52.16903,4.458807,46.13895,0,-1,57,30,1384265257,-0.2859497,-0.4797974,-0.7967224,23.17652,-35.92008,-63.51921,312.3576,312.0139,25,0.0.0.0,10.139.171.151,1,0
2013-11-12 15:08:17.418,315,31.5,52.16903,4.458807,46.13895,0,-1,57,30,1384265257,-0.2859497,-0.4797974,-0.7967224,22.24019,-35.64585,-64.61023,314.3775,314.0338,25,0.0.0.0,10.139.171.151,1,0
2013-11-12 15:08:17.487,316,31.6,52.16903,4.458807,46.13895,0,-1,57,30,1384265257,-0.1147614,-0.5737305,-0.7559052,21.57925,-35.86523,-63.92116,314.9035,314.5598,25,0.0.0.0,10.139.171.151,1,0
2013-11-12 15:08:17.585,317,31.7,52.16903,4.458807,46.13895,0,-1,57,30,1384265257,-0.269516,-0.3713837,-0.7667694,20.69801,-35.75555,-64.38054,315.009,314.6653,25,0.0.0.0,10.139.171.151,1,0
2013-11-12 15:08:17.691,318,31.8,52.16903,4.458807,46.13895,0,-1,57,30,1384265257,-0.2682343,-0.4897308,-0.6671448,19.15582,-35.53617,-65.29929,315.5049,315.1612,25,0.0.0.0,10.139.171.151,1,0
2013-11-12 15:08:17.811,319,31.9,52.16903,4.458807,46.13895,0,-1,57,30,1384265257,-0.8707275,-0.842392,-0.8973846,18.9355,-35.75555,-65.75867,318.3752,318.0314,25,0.0.0.0,10.139.171.151,1,0
2013-11-12 15:08:17.889,320,32,52.16903,4.458807,46.13895,0,-1,57,30,1384265257,-0.2749176,-0.4624786,-0.8016052,19.32105,-35.81039,-65.3567,318.8685,318.5248,25,0.0.0.0,10.139.171.151,1,0
2013-11-12 15:08:17.990,321,32.1,52.16903,4.458807,46.13895,0,-1,57,30,1384265257,-0.3297729,-0.4648132,-0.8563232,17.99918,-34.60383,-64.78249,319.712,319.3683,25,0.0.0.0,10.139.171.151,1,0
2013-11-12 15:08:18.208,322,32.2,52.16903,4.458807,46.13895,0,-1,57,30,1384265258,-0.1428986,-0.2667084,-0.6896362,16.89761,-34.27477,-64.66765,321.7461,321.4023,25,0.0.0.0,10.139.171.151,1,0
2013-11-12 15:08:18.286,323,32.3,52.16903,4.458807,46.13895,0,-1,57,30,1384265258,-0.1902771,-0.604248,-0.7298279,17.173,-35.09742,-66.56256,319.4641,319.1203,25,0.0.0.0,10.139.171.151,1,0
2013-11-12 15:08:18.392,324,32.4,52.16903,4.458807,46.13895,0,-1,57,30,1384265258,-0.0982666,-0.4073486,-1.234299,16.51207,-34.11024,-65.29929,320.0721,319.7284,25,0.0.0.0,10.139.171.151,1,0
2013-11-12 15:08:18.515,325,32.5,52.16903,4.458807,46.13895,0,-1,57,30,1384265258,-0.16745,-0.402771,-1.099243,15.90621,-34.49414,-64.20827,319.7079,319.3642,25,0.0.0.0,10.139.171.151,1,0
2013-11-12 15:08:18.611,326,32.6,52.16903,4.458807,46.13895,0,-1,57,30,1384265258,-0.3112183,-0.6082458,-0.4635162,15.57574,-36.02977,-65.01218,320.412,320.0683,25,0.0.0.0,10.139.171.151,1,0
2013-11-12 15:08:18.708,327,32.7,52.16903,4.458807,46.13895,0,-1,57,30,1384265258,-0.4602661,-0.6739502,-0.8173523,15.24527,-35.7007,-64.89734,321.2784,320.9347,25,0.0.0.0,10.139.171.151,1,0
2013-11-12 15:08:18.821,328,32.8,52.16903,4.458807,46.13895,0,-1,57,30,1384265258,-0.4402313,-0.6185303,-0.4786072,14.74957,-35.3168,-65.98834,322.4254,322.0817,25,0.0.0.0,10.139.171.151,1,0
2013-11-12 15:08:19.006,329,32.9,52.16903,4.458807,46.13895,0,-1,57,30,1384265258,-0.4890137,-0.4458923,-1.061462,12.54644,-35.53617,-67.36647,322.0677,321.724,25,0.0.0.0,10.139.171.151,1,0
2013-11-12 15:08:21.787,330,33,52.16903,4.458807,46.13895,0,-1,57,30,1384265258,-0.4905548,-0.6538391,-1.367599,12.43629,-36.19429,-67.13678,321.498,321.1543,25,0.0.0.0,10.139.171.151,1,0
2013-11-12 15:08:22.512,331,33.1,52.16903,4.458807,46.13895,0,-1,57,30,1384265259,-0.6258392,-0.9190521,-0.8368225,12.05074,-36.35883,-66.84967,320.7101,320.3664,25,0.0.0.0,10.139.171.151,1,0
2013-11-12 15:08:23.002,332,33.2,52.16903,4.458807,46.13895,0,-1,57,30,1384265259,-0.674118,-1.001801,-0.4717102,11.88551,-35.64585,-67.711,322.2695,321.9258,25,0.0.0.0,10.139.171.151,1,0
2013-11-12 15:08:23.219,333,33.3,52.16903,4.458807,46.13895,0,-1,57,30,1384265259,-0.546814,-0.7527313,-0.4231873,14.14371,-35.15226,-67.19421,322.0288,321.6851,25,0.0.0.0,10.139.171.151,1,0
2013-11-12 15:08:23.319,334,33.4,52.16903,4.458807,46.13895,0,-1,57,30,1384265259,-0.4289398,-0.6314545,-0.8066254,16.01637,-36.13945,-65.47156,318.3475,318.0038,25,0.0.0.0,10.139.171.151,1,0
2013-11-12 15:08:23.436,335,33.5,52.16903,4.458807,46.13895,0,-1,57,30,1384265259,-0.441925,-0.7151184,-0.4647369,15.35543,-36.13945,-65.3567,318.5445,318.2008,25,0.0.0.0,10.139.171.151,1,0
2013-11-12 15:08:23.567,336,33.6,52.16903,4.458807,46.13895,0,-1,57,30,1384265259,-0.3712769,-0.7199249,-0.08183289,16.07144,-35.75554,-65.75867,318.2878,317.9441,25,0.0.0.0,10.139.171.151,1,0
2013-11-12 15:08:23.692,337,33.7,52.16903,4.458807,46.13895,0,-1,57,30,1384265259,-0.2589417,-0.6821289,-0.08537292,17.28316,-35.64585,-67.13678,318.3079,317.9641,25,0.0.0.0,10.139.171.151,1,0
2013-11-12 15:08:23.797,338,33.8,52.16903,4.458807,46.13895,0,-1,57,30,1384265259,-0.2717743,-0.6901855,-0.5760803,17.50347,-36.52336,-66.33289,317.4862,317.1425,25,0.0.0.0,10.139.171.151,1,0
2013-11-12 15:08:24.033,339,33.9,52.16903,4.458807,46.13895,0,-1,57,30,1384265259,-0.5026703,-0.8198242,-0.1794586,17.33824,-36.90726,-66.16061,317.2546,316.9109,25,0.0.0.0,10.139.171.151,1,0
2013-11-12 15:08:24.136,340,34,52.16903,4.458807,46.13895,0,-1,57,30,1384265259,-0.3379669,-0.7307587,-0.4535828,18.05425,-38.16867,-67.02194,316.4379,316.0942,25,0.0.0.0,10.139.171.151,1,0
2013-11-12 15:08:24.255,341,34.1,52.16903,4.458807,46.13895,0,-1,57,30,1384265259,-0.2285461,-0.6926727,-0.8670197,18.10933,-38.00414,-67.53874,316.2589,315.9152,25,0.0.0.0,10.139.171.151,1,0
2013-11-12 15:08:24.472,342,34.2,52.16903,4.458807,46.13895,0,-1,57,30,1384265260,-0.4497375,-0.9639282,-0.6568756,17.28316,-36.9621,-68.28522,319.271,318.9273,25,0.0.0.0,10.139.171.151,1,0
2013-11-12 15:08:24.585,343,34.3,52.16903,4.458807,46.13895,0,-1,57,30,1384265260,-0.3121948,-0.8033905,-0.3218536,16.23668,-38.11383,-69.49109,320.8286,320.4849,25,0.0.0.0,10.139.171.151,1,0
2013-11-12 15:08:24.709,344,34.4,52.16903,4.458807,46.13895,0,-1,57,30,1384265260,-0.3282623,-0.5594025,-0.7207489,14.25386,-38.00414,-69.72076,322.7106,322.3669,25,0.0.0.0,10.139.171.151,1,0
2013-11-12 15:08:24.827,345,34.5,52.16903,4.458807,46.13895,0,-1,57,30,1384265260,-0.420578,-0.7350311,-0.4577942,14.52925,-38.05898,-68.62976,321.172,320.8283,25,0.0.0.0,10.139.171.151,1,0
2013-11-12 15:08:25.227,346,34.6,52.16903,4.458807,46.13895,0,-1,57,30,1384265260,-0.3972015,-0.6833496,-0.421814,14.08863,-39.26554,-68.17038,320.0832,319.7394,25,0.0.0.0,10.139.171.151,1,0
2013-11-12 15:08:25.367,347,34.7,52.16903,4.458807,46.13895,0,-1,57,30,1384265260,-0.346817,-0.4899139,-0.5340576,13.70308,-39.10102,-68.34265,320.1403,319.7965,25,0.0.0.0,10.139.171.151,1,0
2013-11-12 15:08:25.490,348,34.8,52.16903,4.458807,46.13895,0,-1,57,30,1384265260,-0.4190063,-0.5727234,-0.7726746,13.26246,-39.2107,-68.68718,320.1908,319.847,25,0.0.0.0,10.139.171.151,1,0
2013-11-12 15:08:26.082,349,34.9,52.16903,4.458807,46.13895,0,-1,57,30,1384265260,-0.4322357,-0.6016846,-0.435791,12.1609,-39.43008,-66.73483,320.1137,319.77,25,0.0.0.0,10.139.171.151,1,0
2013-11-12 15:08:26.269,350,35,52.16908,4.458844,57.33911,0,-1,57,30,1384265261,-0.2852631,-0.5531616,-0.5843048,12.27105,-39.53976,-67.53874,320.2676,319.9239,25,0.0.0.0,10.139.171.151,1,0
2013-11-12 15:08:26.804,351,35.1,52.16908,4.458844,57.33911,0,-1,57,30,1384265261,-0.179718,-0.6626129,-0.4589691,12.6566,-41.02055,-65.18445,318.0658,317.722,25,0.0.0.0,10.139.171.151,1,0
2013-11-12 15:08:27.163,352,35.2,52.16908,4.458844,57.33911,0,-1,57,30,1384265261,-0.1886749,-0.9401398,-0.0415802,12.32613,-41.13023,-65.98834,318.556,318.2123,25,0.0.0.0,10.139.171.151,1,0
2013-11-12 15:08:27.314,353,35.3,52.16908,4.458844,57.33911,0,-1,57,30,1384265261,-0.2369995,-1.427124,-0.1816711,11.61012,-42.94008,-62.14108,315.6876,315.3438,25,0.0.0.0,10.139.171.151,1,0
2013-11-12 15:08:27.526,354,35.4,52.16908,4.458844,57.33911,0,-1,57,30,1384265261,-0.2369995,-1.427124,-0.1816711,12.71168,-42.83039,-62.94499,315.1365,314.7928,25,0.0.0.0,10.139.171.151,1,0
2013-11-12 15:08:27.760,355,35.5,52.16908,4.458844,57.33911,0,-1,57,30,1384265261,-0.257782,-0.6720734,-0.8136444,13.26246,-43.04977,-62.14108,313.2879,312.9442,25,0.0.0.0,10.139.171.151,1,0
2013-11-12 15:08:28.103,356,35.6,52.16908,4.458844,57.33911,0,-1,57,30,1384265261,-0.3140106,-0.8634338,-0.04618835,11.22457,-43.21429,-60.93523,311.8892,311.5455,25,0.0.0.0,10.139.171.151,1,0
2013-11-12 15:08:28.336,357,35.7,52.16908,4.458844,57.33911,0,-1,57,30,1384265261,-0.4859161,-1.529068,-0.9846191,12.21597,-42.11742,-61.50945,312.022,311.6783,25,0.0.0.0,10.139.171.151,1,0
2013-11-12 15:08:28.506,358,35.8,52.16908,4.458844,53.97403,0,-1,57,30,1384265262,-0.911911,-1.058975,0.03373718,13.59293,-41.51414,-61.6817,311.3702,311.0265,25,0.0.0.0,10.139.171.151,1,0
2013-11-12 15:08:28.609,359,35.9,52.16908,4.458844,53.97403,0,-1,57,30,1384265262,-0.2326202,-0.4017944,-0.153183,14.47417,-42.61102,-58.81061,308.4993,308.1555,25,0.0.0.0,10.139.171.151,1,0
2013-11-12 15:08:28.777,360,36,52.16908,4.458844,53.97403,0,-1,57,30,1384265262,0.2993317,-0.5255432,-0.6755371,13.86832,-42.77555,-56.57117,306.8994,306.5557,25,0.0.0.0,10.139.171.151,1,0
2013-11-12 15:08:29.033,361,36.1,52.16908,4.458844,53.97403,0,-1,57,30,1384265262,-0.04362488,-0.7420502,-0.2985687,14.08863,-41.56898,-57.14539,307.5861,307.2424,25,0.0.0.0,10.139.171.151,1,0
2013-11-12 15:08:29.167,362,36.2,52.16908,4.458844,53.97403,0,-1,57,30,1384265262,-0.1936798,-0.8526001,-0.208313,14.80465,-41.18508,-56.74342,307.5294,307.1857,25,0.0.0.0,10.139.171.151,1,0
2013-11-12 15:08:29.666,363,36.3,52.16908,4.458844,53.97403,0,-1,57,30,1384265262,-0.3231354,-0.9385529,-0.5980377,15.68589,-40.19789,-56.05437,307.1938,306.8501,25,0.0.0.0,10.139.171.151,1,0
2013-11-12 15:08:30.297,364,36.4,52.16908,4.458844,53.97403,0,-1,57,30,1384265262,-0.4272308,-0.6508636,-0.460968,15.08004,-39.48492,-55.99695,307.9861,307.6424,25,0.0.0.0,10.139.171.151,1,0
2013-11-12 15:08:30.682,365,36.5,52.16909,4.458839,54.37537,0.3992912,-1,57,30,1384265263,-0.4486542,-0.8456421,-0.4303436,17.11793,-37.34601,-55.48015,307.7618,307.4181,25,0.0.0.0,10.139.171.151,1,0
2013-11-12 15:08:30.870,366,36.6,52.16909,4.458839,54.37537,0.3992912,-1,57,30,1384265263,-0.4284821,-0.7819672,-0.3710327,16.78746,-37.23632,-54.44655,307.8486,307.5049,25,0.0.0.0,10.139.171.151,1,0
2013-11-12 15:08:31.329,367,36.7,52.16909,4.458839,54.37537,0.3992912,-1,57,30,1384265263,-0.4284821,-0.7819672,-0.3710327,16.45699,-37.34602,-54.21686,307.8597,307.516,25,0.0.0.0,10.139.171.151,1,0
2013-11-12 15:08:31.482,368,36.8,52.16909,4.458839,54.37537,0.3992912,-1,57,30,1384265263,-0.1535645,-0.8564758,-0.4418182,17.00777,-36.90726,-53.18327,307.1261,306.7824,25,0.0.0.0,10.139.171.151,1,0
2013-11-12 15:08:31.616,369,36.9,52.16909,4.458839,54.37537,0.3992912,-1,57,30,1384265263,-0.1535645,-0.8564758,-0.4418182,17.28316,-35.64586,-52.89616,307.1826,306.8389,25,0.0.0.0,10.139.171.151,1,0
2013-11-12 15:08:31.759,370,37,52.16909,4.458839,54.37537,0.3992912,-1,57,30,1384265263,-0.2852783,-0.9212341,-0.4353485,17.44839,-35.04258,-54.10202,308.2115,307.8678,25,0.0.0.0,10.139.171.151,1,0
2013-11-12 15:08:31.877,371,37.1,52.16909,4.458839,54.37537,0.3992912,-1,57,30,1384265263,-0.356781,-0.7831268,-0.450592,17.9441,-35.3168,-54.50397,308.2479,307.9041,25,0.0.0.0,10.139.171.151,1,0
2013-11-12 15:08:32.056,372,37.2,52.16909,4.458839,54.37537,0.3992912,-1,57,30,1384265263,-0.3750305,-0.6956024,-0.4275208,18.66011,-36.35883,-55.25046,308.5646,308.2209,25,0.0.0.0,10.139.171.151,1,0
2013-11-12 15:08:32.163,373,37.3,52.16909,4.458839,54.37537,0.3992912,-1,57,30,1384265263,-0.3756714,-0.7484894,-0.4429626,18.60503,-35.53617,-56.686,311.0999,310.7562,25,0.0.0.0,10.139.171.151,1,0
2013-11-12 15:08:32.331,374,37.4,52.16909,4.458839,54.37537,0.3992912,-1,57,30,1384265263,-0.4263458,-0.7843323,-0.4109497,18.21949,-35.37164,-58.00671,312.4681,312.1244,25,0.0.0.0,10.139.171.151,1,0
2013-11-12 15:08:32.537,375,37.5,52.16909,4.458839,57.27456,0,-1,57,30,1384265264,-0.4989319,-0.8794403,-0.4976349,17.66871,-34.27477,-56.28406,311.9682,311.6245,25,0.0.0.0,10.139.171.151,1,0
2013-11-12 15:08:32.662,376,37.6,52.16909,4.458839,57.27456,0,-1,57,30,1384265264,-0.3921356,-0.7075043,-0.158844,17.00777,-33.50695,-56.28406,311.4652,311.1215,25,0.0.0.0,10.139.171.151,1,0
2013-11-12 15:08:32.815,377,37.7,52.16909,4.458839,57.27456,0,-1,57,30,1384265264,-0.3956146,-0.7294922,-0.3301697,17.77886,-33.50695,-56.74342,311.3101,310.9664,25,0.0.0.0,10.139.171.151,1,0
2013-11-12 15:08:33.056,378,37.8,52.16909,4.458839,57.27456,0,-1,57,30,1384265264,-0.5397949,-0.8384857,-0.7062531,16.07144,-33.23273,-57.94928,314.2689,313.9252,25,0.0.0.0,10.139.171.151,1,0
2013-11-12 15:08:33.174,379,37.9,52.16909,4.458839,57.27456,0,-1,57,30,1384265264,-0.5380707,-0.8643799,-0.5396881,15.79605,-33.83601,-58.12155,314.7034,314.3597,25,0.0.0.0,10.139.171.151,1,0
2013-11-12 15:08:33.282,380,38,52.16909,4.458839,57.27456,0,-1,57,30,1384265264,-0.4189453,-0.7317657,-0.4169006,15.68589,-32.84882,-59.15515,314.778,314.4342,25,0.0.0.0,10.139.171.151,1,0
2013-11-12 15:08:33.367,381,38.1,52.16909,4.458839,57.27456,0,-1,57,30,1384265264,-0.3927765,-0.6837463,-0.342926,16.1816,-32.46492,-59.32741,314.8822,314.5385,25,0.0.0.0,10.139.171.151,1,0
2013-11-12 15:08:33.469,382,38.2,52.16909,4.458839,57.27456,0,-1,57,30,1384265264,-0.4895782,-0.9503174,-0.5343933,15.63082,-32.24554,-58.75319,315.0171,314.6734,25,0.0.0.0,10.139.171.151,1,0
2013-11-12 15:08:33.585,383,38.3,52.16909,4.458839,57.27456,0,-1,57,30,1384265264,-0.2801514,-0.711853,-0.5059662,15.30035,-31.36805,-58.98288,315.3325,314.9888,25,0.0.0.0,10.139.171.151,1,0
2013-11-12 15:08:33.689,384,38.4,52.16909,4.458839,57.27456,0,-1,57,30,1384265264,-0.2122803,-0.73526,-0.6779785,16.56715,-32.08102,-58.23639,316.3742,316.0305,25,0.0.0.0,10.139.171.151,1,0
2013-11-12 15:08:33.769,385,38.5,52.16909,4.458839,57.27456,0,-1,57,30,1384265264,-0.3848724,-0.8376617,-0.2733612,16.40191,-32.90367,-57.48991,315.3531,315.0094,25,0.0.0.0,10.139.171.151,1,0
2013-11-12 15:08:33.978,386,38.6,52.16909,4.458839,58.20632,0,-1,57,30,1384265265,-0.3929443,-0.8440552,-0.3483429,15.74097,-32.79398,-58.17897,315.2059,314.8622,25,0.0.0.0,10.139.171.151,1,0
2013-11-12 15:08:34.067,387,38.7,52.16909,4.458839,58.20632,0,-1,57,30,1384265265,-0.4736176,-0.7839355,-0.4714813,15.85113,-33.12305,-57.03053,314.0356,313.6918,25,0.0.0.0,10.139.171.151,1,0
2013-11-12 15:08:34.190,388,38.8,52.16909,4.458839,58.20632,0,-1,57,30,1384265265,-0.4736176,-0.7839355,-0.4714813,14.69449,-32.62945,-57.66217,316.8568,316.5131,25,0.0.0.0,10.139.171.151,1,0
2013-11-12 15:08:34.313,389,38.9,52.16909,4.458839,58.20632,0,-1,57,30,1384265265,-0.2846222,-0.7693329,-0.4941559,14.85972,-33.34242,-58.86804,318.1877,317.844,25,0.0.0.0,10.139.171.151,1,0
2013-11-12 15:08:34.409,390,39,52.16909,4.458839,58.20632,0,-1,57,30,1384265265,-0.3627472,-0.8076935,-0.4777985,13.86832,-33.45211,-58.75319,318.9737,318.63,25,0.0.0.0,10.139.171.151,1,0
2013-11-12 15:08:34.486,391,39.1,52.16909,4.458839,58.20632,0,-1,57,30,1384265265,-0.3884583,-0.8949585,-0.4591827,12.43629,-34.76836,-59.5571,319.0187,318.675,25,0.0.0.0,10.139.171.151,1,0
2013-11-12 15:08:34.584,392,39.2,52.16909,4.458839,58.20632,0,-1,57,30,1384265265,-0.3060913,-0.8416443,-0.4336853,12.93199,-34.71352,-60.41843,319.8585,319.5148,25,0.0.0.0,10.139.171.151,1,0
2013-11-12 15:08:34.709,393,39.3,52.16909,4.458839,58.20632,0,-1,57,30,1384265265,-0.3797455,-0.7786713,-0.4409637,13.75816,-33.89086,-60.70554,319.8565,319.5128,25,0.0.0.0,10.139.171.151,1,0
2013-11-12 15:08:34.809,394,39.4,52.16909,4.458839,58.20632,0,-1,57,30,1384265265,-0.3705139,-0.7997894,-0.4856262,14.25386,-34.05539,-59.84421,316.7595,316.4158,25,0.0.0.0,10.139.171.151,1,0
2013-11-12 15:08:34.986,395,39.5,52.16909,4.458839,58.20632,0,-1,57,30,1384265265,-0.319809,-0.8480377,-0.5232849,14.19878,-32.6843,-60.70554,317.8969,317.5531,25,0.0.0.0,10.139.171.151,1,0
2013-11-12 15:08:35.168,396,39.6,52.16909,4.458839,58.20632,0,-1,57,30,1384265265,-0.3839874,-0.8477936,-0.4203644,13.92339,-33.50695,-60.99265,317.7864,317.4427,25,0.0.0.0,10.139.171.151,1,0
2013-11-12 15:08:35.262,397,39.7,52.16914,4.458819,63.60986,0,-1,57,30,1384265266,-0.3290405,-0.8100891,-0.5633545,15.4105,-33.89086,-61.05006,315.8989,315.5552,25,0.0.0.0,10.139.171.151,1,0
2013-11-12 15:08:35.382,398,39.8,52.16914,4.458819,63.60986,0,-1,57,30,1384265266,-0.3855286,-0.763443,-0.4965057,14.19878,-33.78117,-61.73914,316.1324,315.7886,25,0.0.0.0,10.139.171.151,1,0
2013-11-12 15:08:35.481,399,39.9,52.16914,4.458819,63.60986,0,-1,57,30,1384265266,-0.4200439,-0.7986908,-0.4731903,14.47417,-34.05539,-62.25592,316.3481,316.0043,25,0.0.0.0,10.139.171.151,1,0
2013-11-12 15:08:35.568,400,40,52.16914,4.458819,63.60986,0,-1,57,30,1384265266,-0.3860626,-0.9333038,-0.5866089,14.80465,-34.05539,-61.6817,316.4034,316.0596,25,0.0.0.0,10.139.171.151,1,0
2013-11-12 15:08:35.685,401,40.1,52.16914,4.458819,63.60986,0,-1,57,30,1384265266,-0.2956696,-0.877243,-0.4549713,14.52925,-33.89086,-61.96881,316.4506,316.1069,25,0.0.0.0,10.139.171.151,1,0
2013-11-12 15:08:35.779,402,40.2,52.16914,4.458819,63.60986,0,-1,57,30,1384265266,-0.4462433,-0.8410797,-0.3534393,13.59293,-34.60383,-61.6817,316.4998,316.1561,25,0.0.0.0,10.139.171.151,1,0
2013-11-12 15:08:35.999,403,40.3,52.16914,4.458819,63.60986,0,-1,57,30,1384265266,-0.4243927,-0.8096466,-0.5072479,14.4191,-33.78117,-63.11725,317.6368,317.2931,25,0.0.0.0,10.139.171.151,1,0
2013-11-12 15:08:36.316,404,40.4,52.16914,4.458819,63.60986,0,-1,57,30,1384265266,-0.2312012,-0.780014,-0.4783478,15.63082,-32.6843,-62.1985,317.5807,317.2369,25,0.0.0.0,10.139.171.151,1,0
2013-11-12 15:08:36.471,405,40.5,52.16914,4.458819,63.60986,0,-1,57,30,1384265266,-0.6036682,-0.7288818,0.03895569,15.35543,-33.0682,-63.40436,317.7055,317.3618,25,0.0.0.0,10.139.171.151,1,0
2013-11-12 15:08:36.646,406,40.6,52.16914,4.458819,63.60986,0,-1,57,30,1384265266,-0.2932739,-0.6774292,-0.5109711,16.29176,-34.43929,-61.96881,317.6783,317.3346,25,0.0.0.0,10.139.171.151,1,0
2013-11-12 15:08:36.836,407,40.7,52.16915,4.458817,63.68151,0.1606068,-1,57,30,1384265267,-0.3574982,-0.9040222,-0.5281677,15.02496,-34.8232,-61.91139,317.3167,316.973,25,0.0.0.0,10.139.171.151,1,0
2013-11-12 15:08:37.072,408,40.8,52.16915,4.458817,63.68151,0.1606068,-1,57,30,1384265267,-0.2751923,-1.022476,-0.4768982,16.6773,-33.72633,-60.87781,317.3514,317.0077,25,0.0.0.0,10.139.171.151,1,0
2013-11-12 15:08:37.176,409,40.9,52.16915,4.458817,63.68151,0.1606068,-1,57,30,1384265267,-0.1289215,-0.9586182,-0.5504913,16.23668,-34.60383,-60.87781,316.8361,316.4924,25,0.0.0.0,10.139.171.151,1,0
2013-11-12 15:08:37.351,410,41,52.16915,4.458817,63.68151,0.1606068,-1,57,30,1384265267,-0.2890778,-0.766983,-0.5701294,17.173,-34.98773,-62.1985,317.5788,317.235,25,0.0.0.0,10.139.171.151,1,0
2013-11-12 15:08:37.555,411,41.1,52.16915,4.458817,63.68151,0.1606068,-1,57,30,1384265267,-0.2675934,-0.8358002,-0.565979,17.55855,-35.48133,-60.99265,317.7774,317.4337,25,0.0.0.0,10.139.171.151,1,0
2013-11-12 15:08:37.690,412,41.2,52.16915,4.458817,63.68151,0.1606068,-1,57,30,1384265267,-0.2175903,-0.8228607,-0.5404968,17.44839,-35.37164,-62.37077,318.3765,318.0328,25,0.0.0.0,10.139.171.151,1,0
2013-11-12 15:08:37.786,413,41.3,52.16915,4.458817,63.68151,0.1606068,-1,57,30,1384265267,-0.2494812,-0.796051,-0.5630798,17.33824,-35.48133,-61.91139,317.1572,316.8135,25,0.0.0.0,10.139.171.151,1,0
2013-11-12 15:08:37.978,414,41.4,52.16915,4.458817,63.68151,0.1606068,-1,57,30,1384265267,-0.2265167,-0.7920685,-0.6136169,18.05425,-35.42648,-62.31335,317.2262,316.8824,25,0.0.0.0,10.139.171.151,1,0
2013-11-12 15:08:38.170,415,41.5,52.16915,4.458817,60.5731,0,-1,57,30,1384265268,-0.2659454,-0.8268738,-0.5503845,18.27457,-35.64586,-61.27975,314.7829,314.4391,25,0.0.0.0,10.139.171.151,1,0
2013-11-12 15:08:38.294,416,41.6,52.16915,4.458817,60.5731,0,-1,57,30,1384265268,-0.2204285,-0.7368927,-0.5494843,17.99918,-34.71352,-61.6817,315.3218,314.9781,25,0.0.0.0,10.139.171.151,1,0
2013-11-12 15:08:38.387,417,41.7,52.16915,4.458817,60.5731,0,-1,57,30,1384265268,-0.3088226,-0.863266,-0.5631256,16.78746,-35.81039,-62.7153,316.944,316.6003,25,0.0.0.0,10.139.171.151,1,0
2013-11-12 15:08:38.501,418,41.8,52.16915,4.458817,60.5731,0,-1,57,30,1384265268,-0.2093201,-0.7738495,-0.5055389,16.62222,-36.63305,-63.34694,316.1866,315.8429,25,0.0.0.0,10.139.171.151,1,0
2013-11-12 15:08:38.579,419,41.9,52.16915,4.458817,60.5731,0,-1,57,30,1384265268,-0.3183136,-0.8724976,-0.5203094,16.51207,-36.85242,-63.92116,315.4987,315.155,25,0.0.0.0,10.139.171.151,1,0
2013-11-12 15:08:38.705,420,42,52.16915,4.458817,60.5731,0,-1,57,30,1384265268,-0.2589569,-0.8482208,-0.5162506,16.62222,-36.63305,-64.8399,315.9334,315.5897,25,0.0.0.0,10.139.171.151,1,0
2013-11-12 15:08:38.804,421,42.1,52.16915,4.458817,60.5731,0,-1,57,30,1384265268,-0.3012848,-0.8315125,-0.493103,16.45699,-36.02977,-64.78249,316.2538,315.9101,25,0.0.0.0,10.139.171.151,1,0
2013-11-12 15:08:39.010,422,42.2,52.16915,4.458817,60.5731,0,-1,57,30,1384265268,-0.252533,-0.8123932,-0.6496887,15.74097,-34.87804,-65.41412,319.307,318.9633,25,0.0.0.0,10.139.171.151,1,0
2013-11-12 15:08:39.118,423,42.3,52.16915,4.458817,60.5731,0,-1,57,30,1384265268,-0.1781158,-0.7899628,-0.5988312,17.50347,-35.53617,-65.75867,318.9885,318.6448,25,0.0.0.0,10.139.171.151,1,0
2013-11-12 15:08:39.278,424,42.4,52.16915,4.458817,60.5731,0,-1,57,30,1384265268,-0.291214,-0.8449554,-0.5514374,16.89761,-35.04258,-66.62,320.547,320.2032,25,0.0.0.0,10.139.171.151,1,0
2013-11-12 15:08:39.388,425,42.5,52.16915,4.458817,60.5731,0,-1,57,30,1384265268,-0.3426056,-0.9028625,-0.2574463,17.173,-34.98773,-66.56256,320.5865,320.2428,25,0.0.0.0,10.139.171.151,1,0
2013-11-12 15:08:39.486,426,42.6,52.16915,4.458817,60.5731,0,-1,57,30,1384265268,-0.1770172,-0.9257812,-0.3755341,17.28316,-36.41367,-65.41412,320.0294,319.6857,25,0.0.0.0,10.139.171.151,1,0
2013-11-12 15:08:39.588,427,42.7,52.16915,4.458817,60.5731,0,-1,57,30,1384265268,-0.2677612,-0.8429108,-0.4890289,15.85113,-37.18148,-64.95476,320.8016,320.4579,25,0.0.0.0,10.139.171.151,1,0
2013-11-12 15:08:39.727,428,42.8,52.16915,4.458817,60.5731,0,-1,57,30,1384265268,-0.2619476,-0.8385773,-0.5386658,15.57574,-37.56539,-64.5528,320.4579,320.1142,25,0.0.0.0,10.139.171.151,1,0
2013-11-12 15:08:39.819,429,42.9,52.16915,4.458817,51.97689,0,-1,57,30,1384265269,-0.3264923,-0.8403625,-0.5535126,16.73238,-37.0718,-65.0696,319.2391,318.8954,25,0.0.0.0,10.139.171.151,1,0
2013-11-12 15:08:40.081,430,43,52.16915,4.458817,51.97689,0,-1,57,30,1384265269,-0.1882782,-0.7745361,-0.5356293,17.06285,-35.97493,-65.18445,318.8217,318.478,25,0.0.0.0,10.139.171.151,1,0
2013-11-12 15:08:40.242,431,43.1,52.16915,4.458817,51.97689,0,-1,57,30,1384265269,-0.2239532,-0.7849731,-0.5805359,16.78746,-36.57821,-63.86374,317.7527,317.409,25,0.0.0.0,10.139.171.151,1,0
2013-11-12 15:08:40.435,432,43.2,52.16915,4.458817,51.97689,0,-1,57,30,1384265269,-0.3988495,-0.8920898,-0.4874725,15.96128,-38.16867,-64.95476,317.1915,316.8477,25,0.0.0.0,10.139.171.151,1,0
2013-11-12 15:08:40.516,433,43.3,52.16915,4.458817,51.97689,0,-1,57,30,1384265269,-0.312439,-0.7627106,-0.4709015,15.68589,-37.67508,-64.09343,317.6983,317.3546,25,0.0.0.0,10.139.171.151,1,0
2013-11-12 15:08:40.609,434,43.4,52.16915,4.458817,51.97689,0,-1,57,30,1384265269,-0.2616882,-0.8148041,-0.5017395,15.96128,-37.83961,-64.03601,317.5937,317.25,25,0.0.0.0,10.139.171.151,1,0
2013-11-12 15:08:40.727,435,43.5,52.16915,4.458817,51.97689,0,-1,57,30,1384265269,-0.3233185,-0.8205109,-0.5136414,14.63941,-38.60742,-64.26569,318.2845,317.9408,25,0.0.0.0,10.139.171.151,1,0
2013-11-12 15:08:40.801,436,43.6,52.16915,4.458817,51.97689,0,-1,57,30,1384265269,-0.2773132,-0.7959442,-0.5037842,14.03355,-39.86883,-65.01218,316.8553,316.5115,25,0.0.0.0,10.139.171.151,1,0
2013-11-12 15:08:40.998,437,43.7,52.16915,4.458817,51.97689,0,-1,57,30,1384265269,-0.2670135,-0.8247986,-0.5377502,12.87691,-39.81398,-60.13132,314.3016,313.9579,25,0.0.0.0,10.139.171.151,1,0
2013-11-12 15:08:41.112,438,43.8,52.16915,4.458817,51.97689,0,-1,57,30,1384265269,-0.2393951,-0.7796173,-0.5591888,11.66519,-39.81398,-61.05006,316.5822,316.2385,25,0.0.0.0,10.139.171.151,1,0
2013-11-12 15:08:41.204,439,43.9,52.16915,4.458817,51.97689,0,-1,57,30,1384265269,-0.2593231,-0.7877045,-0.5261383,11.66519,-39.92367,-61.96881,316.6881,316.3444,25,0.0.0.0,10.139.171.151,1,0
2013-11-12 15:08:41.281,440,44,52.16915,4.458817,51.97689,0,-1,57,30,1384265269,-0.2456207,-0.7877655,-0.6117554,12.6566,-39.92367,-61.27975,313.0628,312.7191,25,0.0.0.0,10.139.171.151,1,0
2013-11-12 15:08:41.409,441,44.1,52.16915,4.458817,51.51009,0,-1,57,30,1384265270,-0.3163605,-0.8800964,-0.493988,11.55503,-40.03336,-61.16492,313.0164,312.6726,25,0.0.0.0,10.139.171.151,1,0
2013-11-12 15:08:41.510,442,44.2,52.16915,4.458817,51.51009,0,-1,57,30,1384265270,-0.3163605,-0.8800964,-0.493988,11.94058,-39.10102,-61.79655,313.2061,312.8624,25,0.0.0.0,10.139.171.151,1,0
2013-11-12 15:08:41.600,443,44.3,52.16915,4.458817,51.51009,0,-1,57,30,1384265270,-0.2624512,-0.8086243,-0.5757294,12.38121,-38.55258,-61.22234,314.4942,314.1505,25,0.0.0.0,10.139.171.151,1,0
2013-11-12 15:08:41.687,444,44.4,52.16915,4.458817,51.51009,0,-1,57,30,1384265270,-0.2624512,-0.8086243,-0.5757294,13.1523,-39.10102,-60.64812,313.2936,312.9499,25,0.0.0.0,10.139.171.151,1,0
2013-11-12 15:08:41.762,445,44.5,52.16915,4.458817,51.51009,0,-1,57,30,1384265270,-0.2434998,-0.7518768,-0.4200592,13.04214,-38.66227,-61.45203,313.6962,313.3525,25,0.0.0.0,10.139.171.151,1,0
2013-11-12 15:08:41.891,446,44.6,52.16915,4.458817,51.51009,0,-1,57,30,1384265270,-0.264801,-0.8011475,-0.5105438,13.59293,-37.56539,-60.53326,313.6958,313.3521,25,0.0.0.0,10.139.171.151,1,0
2013-11-12 15:08:42.061,447,44.7,52.16915,4.458817,51.51009,0,-1,57,30,1384265270,-0.264801,-0.8011475,-0.5105438,14.58433,-37.89445,-58.12155,311.5085,311.1647,25,0.0.0.0,10.139.171.151,1,0
2013-11-12 15:08:42.224,448,44.8,52.16915,4.458817,51.51009,0,-1,57,30,1384265270,-0.2509308,-0.8678894,-0.5122833,17.00777,-38.22351,-57.31764,310.16,309.8163,25,0.0.0.0,10.139.171.151,1,0
2013-11-12 15:08:42.303,449,44.9,52.16915,4.458817,51.51009,0,-1,57,30,1384265270,-0.2339325,-0.8166199,-0.5337524,17.88902,-37.4557,-57.77702,310.0266,309.6828,25,0.0.0.0,10.139.171.151,1,0
2013-11-12 15:08:42.423,450,45,52.16915,4.458817,54.3089,0,-1,57,30,1384265271,-0.2012939,-0.7879181,-0.5317383,18.32964,-37.12664,-57.31764,307.708,307.3643,25,0.0.0.0,10.139.171.151,1,0
2013-11-12 15:08:42.505,451,45.1,52.16915,4.458817,54.3089,0,-1,57,30,1384265271,-0.1886292,-0.7953033,-0.5608826,18.9355,-35.64586,-57.03053,307.918,307.5742,25,0.0.0.0,10.139.171.151,1,0
2013-11-12 15:08:42.579,452,45.2,52.16915,4.458817,54.3089,0,-1,57,30,1384265271,-0.2640228,-0.8475342,-0.4510345,19.26597,-35.75555,-55.42273,307.8617,307.518,25,0.0.0.0,10.139.171.151,1,0
2013-11-12 15:08:42.724,453,45.3,52.16915,4.458817,54.3089,0,-1,57,30,1384265271,-0.2927856,-0.9053497,-0.5327759,19.92691,-36.9621,-54.96335,306.8097,306.4659,25,0.0.0.0,10.139.171.151,1,0
2013-11-12 15:08:42.795,454,45.4,52.16915,4.458817,54.3089,0,-1,57,30,1384265271,-0.2329102,-0.8251801,-0.5064545,20.03707,-36.63305,-55.30788,308.4005,308.0567,25,0.0.0.0,10.139.171.151,1,0
2013-11-12 15:08:42.997,455,45.5,52.16915,4.458817,54.3089,0,-1,57,30,1384265271,-0.2289734,-0.8320618,-0.5015717,21.63433,-36.68789,-57.08795,310.5004,310.1566,25,0.0.0.0,10.139.171.151,1,0
2013-11-12 15:08:43.124,456,45.6,52.16915,4.458817,54.3089,0,-1,57,30,1384265271,-0.2289734,-0.8320618,-0.5015717,20.36753,-35.97492,-56.80084,310.9814,310.6376,25,0.0.0.0,10.139.171.151,1,0
2013-11-12 15:08:43.194,457,45.7,52.16915,4.458817,54.3089,0,-1,57,30,1384265271,-0.2258453,-0.8382721,-0.5326843,20.53277,-34.60383,-58.00671,311.5725,311.2288,25,0.0.0.0,10.139.171.151,1,0
2013-11-12 15:08:43.291,458,45.8,52.16915,4.458817,54.3089,0,-1,57,30,1384265271,-0.2252197,-0.8273468,-0.5122833,19.92691,-33.45211,-57.83444,312.2061,311.8624,25,0.0.0.0,10.139.171.151,1,0
2013-11-12 15:08:43.406,459,45.9,52.16915,4.458817,54.3089,0,-1,57,30,1384265271,-0.2175903,-0.8238373,-0.5385437,18.10933,-32.84883,-58.00671,314.867,314.5233,25,0.0.0.0,10.139.171.151,1,0
2013-11-12 15:08:43.509,460,46,52.16915,4.458817,54.3089,0,-1,57,30,1384265271,-0.2214661,-0.8226624,-0.526886,17.72379,-32.79398,-60.36101,317.2863,316.9426,25,0.0.0.0,10.139.171.151,1,0
2013-11-12 15:08:43.610,461,46.1,52.16915,4.458817,54.3089,0,-1,57,30,1384265271,-0.2214661,-0.8226624,-0.526886,16.84254,-32.68429,-60.01648,316.7091,316.3654,25,0.0.0.0,10.139.171.151,1,0
2013-11-12 15:08:43.705,462,46.2,52.16915,4.458817,48.96522,0,-1,19,10,1384265272,-0.2270355,-0.8340454,-0.4986267,16.84254,-31.69711,-60.01648,317.0015,316.6578,25,0.0.0.0,10.139.171.151,1,0
2013-11-12 15:08:43.808,463,46.3,52.16915,4.458817,48.96522,0,-1,19,10,1384265272,-0.223114,-0.8343506,-0.5239258,16.56715,-31.75195,-60.41843,317.4869,317.1432,25,0.0.0.0,10.139.171.151,1,0
2013-11-12 15:08:43.992,464,46.4,52.16915,4.458817,48.96522,0,-1,19,10,1384265272,-0.2269135,-0.8351746,-0.5180969,16.62222,-33.56179,-59.90163,316.1254,315.7817,25,0.0.0.0,10.139.171.151,1,0
2013-11-12 15:08:44.070,465,46.5,52.16915,4.458817,48.96522,0,-1,19,10,1384265272,-0.2297668,-0.8342133,-0.5249176,15.4105,-33.12304,-60.82037,318.1105,317.7668,25,0.0.0.0,10.139.171.151,1,0
2013-11-12 15:08:44.169,466,46.6,52.16915,4.458817,48.96522,0,-1,19,10,1384265272,-0.2328949,-0.8252106,-0.5084076,14.30894,-31.8068,-59.67194,318.8307,318.487,25,0.0.0.0,10.139.171.151,1,0
2013-11-12 15:08:44.328,467,46.7,52.16915,4.458817,48.96522,0,-1,19,10,1384265272,-0.2261658,-0.8264008,-0.5190887,15.02496,-31.53258,-59.61452,318.2291,317.8854,25,0.0.0.0,10.139.171.151,1,0
2013-11-12 15:08:44.420,468,46.8,52.16915,4.458817,48.96522,0,-1,19,10,1384265272,-0.210968,-0.828537,-0.5034485,17.11793,-31.97132,-60.18874,316.7756,316.4319,25,0.0.0.0,10.139.171.151,1,0
2013-11-12 15:08:44.500,469,46.9,52.16915,4.458817,48.96522,0,-1,19,10,1384265272,-0.2693634,-0.8527985,-0.5055542,16.62222,-32.79398,-61.05006,317.5779,317.2342,25,0.0.0.0,10.139.171.151,1,0
2013-11-12 15:08:44.608,470,47,52.16915,4.458817,48.96522,0,-1,19,10,1384265272,-0.2693634,-0.8527985,-0.5055542,17.11793,-33.17789,-61.22234,317.7159,317.3722,25,0.0.0.0,10.139.171.151,1,0
2013-11-12 15:08:44.705,471,47.1,52.16915,4.458817,48.96522,0,-1,19,10,1384265272,-0.2002258,-0.8069153,-0.4645233,16.40191,-34.11024,-60.24615,316.9267,316.583,25,0.0.0.0,10.139.171.151,1,0
2013-11-12 15:08:44.789,472,47.2,52.16915,4.458817,48.96522,0,-1,19,10,1384265272,-0.2002258,-0.8069153,-0.4645233,15.08004,-34.65867,-59.90163,317.1771,316.8334,25,0.0.0.0,10.139.171.151,1,0
2013-11-12 15:08:44.996,473,47.3,52.16915,4.458817,50.21212,0,-1,19,10,1384265273,-0.1617126,-0.7861633,-0.4644318,15.4105,-34.98774,-61.16492,317.4896,317.1458,25,0.0.0.0,10.139.171.151,1,0
2013-11-12 15:08:45.099,474,47.4,52.16915,4.458817,50.21212,0,-1,19,10,1384265273,-0.2230682,-0.8502808,-0.6650543,16.12652,-34.60383,-61.56686,317.1887,316.845,25,0.0.0.0,10.139.171.151,1,0
2013-11-12 15:08:45.187,475,47.5,52.16915,4.458817,50.21212,0,-1,19,10,1384265273,-0.1663055,-0.811554,-0.5831451,15.24527,-34.71351,-60.41843,317.7538,317.41,25,0.0.0.0,10.139.171.151,1,0
2013-11-12 15:08:45.296,476,47.6,52.16915,4.458817,50.21212,0,-1,19,10,1384265273,-0.2022552,-0.8299408,-0.5326233,15.35543,-33.9457,-61.22234,318.3509,318.0071,25,0.0.0.0,10.139.171.151,1,0
2013-11-12 15:08:45.390,477,47.7,52.16915,4.458817,50.21212,0,-1,19,10,1384265273,-0.2082214,-0.8218231,-0.5102539,14.19878,-34.43929,-61.73914,317.0163,316.6725,25,0.0.0.0,10.139.171.151,1,0
2013-11-12 15:08:45.487,478,47.8,52.16915,4.458817,50.21212,0,-1,19,10,1384265273,-0.2082214,-0.8218231,-0.5102539,14.25386,-35.15226,-61.91139,316.7863,316.4426,25,0.0.0.0,10.139.171.151,1,0
2013-11-12 15:08:45.576,479,47.9,52.16915,4.458817,50.21212,0,-1,19,10,1384265273,-0.2022552,-0.8243561,-0.5628204,13.31754,-35.64586,-63.46179,318.6536,318.3099,25,0.0.0.0,10.139.171.151,1,0
2013-11-12 15:08:45.733,480,48,52.16915,4.458817,50.21212,0,-1,19,10,1384265273,-0.2047729,-0.8379822,-0.5637512,11.66519,-35.53617,-63.92116,319.1561,318.8124,25,0.0.0.0,10.139.171.151,1,0
2013-11-12 15:08:46.307,481,48.1,52.16915,4.458817,51.83776,0,-1,19,10,1384265274,-0.1064148,-0.7510223,-0.4574738,9.737457,-34.16508,-63.28952,319.531,319.1873,25,0.0.0.0,10.139.171.151,1,0
2013-11-12 15:08:46.470,482,48.2,52.16915,4.458817,51.83776,0,-1,19,10,1384265274,-0.1064148,-0.7510223,-0.4574738,10.06792,-34.8232,-63.97858,318.6904,318.3467,25,0.0.0.0,10.139.171.151,1,0
2013-11-12 15:08:46.619,483,48.3,52.16915,4.458817,51.83776,0,-1,19,10,1384265274,-0.208252,-0.8161316,-0.5316925,9.792534,-34.65867,-64.38054,318.7211,318.3773,25,0.0.0.0,10.139.171.151,1,0
2013-11-12 15:08:46.782,484,48.4,52.16915,4.458817,51.83776,0,-1,19,10,1384265274,-0.2151337,-0.8352051,-0.6017761,8.966362,-33.9457,-65.70123,318.8041,318.4604,25,0.0.0.0,10.139.171.151,1,0
2013-11-12 15:08:47.037,485,48.5,52.16915,4.458817,51.83776,0,-1,19,10,1384265274,-0.2191467,-0.8365936,-0.5482483,9.296833,-33.61664,-65.81609,320.4977,320.1539,25,0.0.0.0,10.139.171.151,1,0
2013-11-12 15:08:47.192,486,48.6,52.16915,4.458817,51.83776,0,-1,19,10,1384265274,-0.2028046,-0.8157806,-0.4810486,10.28824,-33.9457,-65.24187,318.4117,318.068,25,0.0.0.0,10.139.171.151,1,0
2013-11-12 15:08:47.333,487,48.7,52.16915,4.458817,51.83776,0,-1,19,10,1384265274,-0.1976929,-0.8221741,-0.5277557,10.06792,-34.27477,-65.01218,317.5237,317.18,25,0.0.0.0,10.139.171.151,1,0
2013-11-12 15:08:47.534,488,48.8,52.16915,4.458817,51.83776,0,-1,19,10,1384265274,-0.1968079,-0.8145447,-0.5501404,12.6566,-33.12305,-67.25163,318.3747,318.031,25,0.0.0.0,10.139.171.151,1,0
2013-11-12 15:08:47.612,489,48.9,52.16915,4.458817,51.83776,0,-1,19,10,1384265274,-0.1908264,-0.8273621,-0.5471802,12.38121,-33.39727,-67.42389,319.3149,318.9712,25,0.0.0.0,10.139.171.151,1,0
2013-11-12 15:08:47.730,490,49,52.16915,4.458817,51.83776,0,-1,19,10,1384265274,-0.1890106,-0.8263245,-0.5364685,12.49136,-34.16508,-67.88327,319.2867,318.943,25,0.0.0.0,10.139.171.151,1,0
2013-11-12 15:08:47.839,491,49.1,52.16915,4.458817,51.83776,0,-1,19,10,1384265274,-0.1996002,-0.8202667,-0.5355377,11.88551,-34.54899,-68.51491,319.9682,319.6245,25,0.0.0.0,10.139.171.151,1,0
2013-11-12 15:08:48.016,492,49.2,52.1692,4.458856,50.13332,0.0819803,-1,19,10,1384265275,-0.2091827,-0.8161774,-0.5394897,12.98707,-34.11024,-69.43365,319.9592,319.6155,25,0.0.0.0,10.139.171.151,1,0
2013-11-12 15:08:48.118,493,49.3,52.1692,4.458856,50.13332,0.0819803,-1,19,10,1384265275,-0.2110291,-0.8181152,-0.5404816,14.08863,-34.11024,-70.58209,319.7701,319.4263,25,0.0.0.0,10.139.171.151,1,0
2013-11-12 15:08:48.215,494,49.4,52.1692,4.458856,50.13332,0.0819803,-1,19,10,1384265275,-0.2110291,-0.8181152,-0.5404816,13.97847,-34.54898,-71.386,319.6133,319.2695,25,0.0.0.0,10.139.171.151,1,0
2013-11-12 15:08:48.320,495,49.5,52.1692,4.458856,50.13332,0.0819803,-1,19,10,1384265275,-0.196579,-0.8252869,-0.5472107,15.19019,-34.32961,-69.54851,321.8258,321.4821,25,0.0.0.0,10.139.171.151,1,0
2013-11-12 15:08:48.414,496,49.6,52.1692,4.458856,50.13332,0.0819803,-1,19,10,1384265275,-0.1967926,-0.8155365,-0.5501404,14.80465,-33.0682,-73.16608,323.2354,322.8916,25,0.0.0.0,10.139.171.151,1,0
2013-11-12 15:08:48.523,497,49.7,52.1692,4.458856,50.13332,0.0819803,-1,19,10,1384265275,-0.1976624,-0.8213043,-0.5404205,15.19019,-32.6843,-73.68288,323.0288,322.6851,25,0.0.0.0,10.139.171.151,1,0
2013-11-12 15:08:48.600,498,49.8,52.1692,4.458856,50.13332,0.0819803,-1,19,10,1384265275,-0.2013245,-0.8280487,-0.5374756,16.40191,-33.12305,-73.33835,321.7813,321.4376,25,0.0.0.0,10.139.171.151,1,0
2013-11-12 15:08:48.703,499,49.9,52.1692,4.458856,50.13332,0.0819803,-1,19,10,1384265275,-0.2052307,-0.8221588,-0.5433502,16.23668,-33.83602,-73.05124,321.0898,320.7461,25,0.0.0.0,10.139.171.151,1,0
2013-11-12 15:08:48.807,500,50,52.1692,4.458856,50.13332,0.0819803,-1,19,10,1384265275,-0.1977539,-0.816452,-0.5443268,16.84254,-34.98774,-72.64929,319.5884,319.2447,25,0.0.0.0,10.139.171.151,1,0
2013-11-12 15:08:48.959,501,50.1,52.1692,4.458856,50.13332,0.0819803,-1,19,10,1384265275,-0.1939545,-0.8145905,-0.547226,18.27457,-36.30398,-72.87897,317.489,317.1453,25,0.0.0.0,10.139.171.151,1,0
2013-11-12 15:08:49.088,502,50.2,52.1692,4.458856,50.13332,0.0819803,-1,19,10,1384265275,-0.1957855,-0.8194122,-0.543335,18.60503,-36.52336,-72.07507,316.0769,315.7332,25,0.0.0.0,10.139.171.151,1,0
2013-11-12 15:08:49.177,503,50.3,52.1692,4.458856,50.13332,0.0819803,-1,19,10,1384265275,-0.1852112,-0.8235626,-0.5471649,19.76168,-36.46851,-71.9028,316.0659,315.7222,25,0.0.0.0,10.139.171.151,1,0
2013-11-12 15:08:49.336,504,50.4,52.1692,4.458856,49.39528,0,-1,19,10,1384265276,-0.2061768,-0.8230743,-0.5394745,21.79957,-38.16867,-68.97429,317.5702,317.2265,25,0.0.0.0,10.139.171.151,1,0
2013-11-12 15:08:49.466,505,50.5,52.1692,4.458856,49.39528,0,-1,19,10,1384265276,-0.1974792,-0.8291473,-0.5433197,21.90972,-40.36242,-70.35242,317.5823,317.2386,25,0.0.0.0,10.139.171.151,1,0
2013-11-12 15:08:49.615,506,50.6,52.1692,4.458856,49.39528,0,-1,19,10,1384265276,-0.203125,-0.8319397,-0.5384521,21.52418,-39.64945,-69.83562,317.3665,317.0228,25,0.0.0.0,10.139.171.151,1,0
2013-11-12 15:08:49.709,507,50.7,52.1692,4.458856,49.39528,0,-1,19,10,1384265276,-0.1863861,-0.8128357,-0.5520782,21.4691,-39.92367,-68.7446,316.4841,316.1404,25,0.0.0.0,10.139.171.151,1,0
2013-11-12 15:08:49.813,508,50.8,52.1692,4.458856,49.39528,0,-1,19,10,1384265276,-0.1674805,-0.8083038,-0.5471497,19.92691,-40.25274,-70.35242,318.1153,317.7716,25,0.0.0.0,10.139.171.151,1,0
2013-11-12 15:08:50.023,509,50.9,52.1692,4.458856,49.39528,0,-1,19,10,1384265276,-0.1744995,-0.7953033,-0.5316162,18.54996,-40.41727,-72.13249,320.1417,319.798,25,0.0.0.0,10.139.171.151,1,0
2013-11-12 15:08:50.096,510,51,52.1692,4.458856,49.39528,0,-1,19,10,1384265276,-0.2004242,-0.8260803,-0.5345612,18.16441,-40.91086,-71.15631,319.95,319.6062,25,0.0.0.0,10.139.171.151,1,0
2013-11-12 15:08:50.199,511,51.1,52.1692,4.458856,49.39528,0,-1,19,10,1384265276,-0.1977081,-0.8193665,-0.5433502,15.74097,-39.37523,-72.18991,323.5413,323.1976,25,0.0.0.0,10.139.171.151,1,0
2013-11-12 15:08:50.302,512,51.2,52.1692,4.458856,49.39528,0,-1,19,10,1384265276,-0.1901245,-0.8184814,-0.5365143,15.90621,-40.0882,-72.70671,323.0417,322.6979,25,0.0.0.0,10.139.171.151,1,0
2013-11-12 15:08:50.411,513,51.3,52.1692,4.458856,49.39528,0,-1,19,10,1384265276,-0.192749,-0.8272552,-0.5403748,17.28316,-41.34961,-70.81178,320.0318,319.6881,25,0.0.0.0,10.139.171.151,1,0
2013-11-12 15:08:50.487,514,51.4,52.1692,4.458856,49.80719,0,-1,57,30,1384265277,-0.1917114,-0.8302917,-0.5481567,17.50347,-41.56898,-69.66335,319.166,318.8222,25,0.0.0.0,10.139.171.151,1,0
2013-11-12 15:08:50.586,515,51.5,52.1692,4.458856,49.80719,0,-1,57,30,1384265277,-0.1938019,-0.8214417,-0.5472107,16.40191,-41.02055,-71.386,320.8759,320.5321,25,0.0.0.0,10.139.171.151,1,0
2013-11-12 15:08:50.705,516,51.6,52.1692,4.458856,49.80719,0,-1,57,30,1384265277,-0.1938019,-0.8214417,-0.5472107,15.74097,-41.67867,-70.69695,321.0808,320.7371,25,0.0.0.0,10.139.171.151,1,0
2013-11-12 15:08:50.796,517,51.7,52.1692,4.458856,49.80719,0,-1,57,30,1384265277,-0.1713715,-0.8071136,-0.5345154,15.30035,-41.13023,-70.23756,321.8503,321.5065,25,0.0.0.0,10.139.171.151,1,0
2013-11-12 15:08:50.913,518,51.8,52.1692,4.458856,49.80719,0,-1,57,30,1384265277,-0.1685028,-0.8109589,-0.5198822,15.46558,-41.07539,-70.18015,319.7521,319.4084,25,0.0.0.0,10.139.171.151,1,0
2013-11-12 15:08:51.145,519,51.9,52.1692,4.458856,49.80719,0,-1,57,30,1384265277,-0.2280426,-0.8226624,-0.5405273,14.08863,-42.77555,-68.51491,319.5479,319.2042,25,0.0.0.0,10.139.171.151,1,0
2013-11-12 15:08:51.352,520,52,52.1692,4.458856,49.80719,0,-1,57,30,1384265277,-0.2247925,-0.8384552,-0.5511932,12.27105,-43.48852,-68.45749,320.0856,319.7419,25,0.0.0.0,10.139.171.151,1,0
2013-11-12 15:08:51.535,521,52.1,52.1692,4.458856,49.80719,0,-1,57,30,1384265277,-0.1520386,-0.7810211,-0.5218506,12.76675,-41.89805,-69.08913,321.5429,321.1992,25,0.0.0.0,10.139.171.151,1,0
2013-11-12 15:08:51.617,522,52.2,52.1692,4.458856,55.62096,0,-1,57,30,1384265278,-0.1623077,-0.7746277,-0.5968628,12.76675,-42.55617,-68.62976,321.059,320.7153,25,0.0.0.0,10.139.171.151,1,0
2013-11-12 15:08:51.711,523,52.3,52.1692,4.458856,55.62096,0,-1,57,30,1384265278,-0.2571564,-1.006836,-0.5479431,13.04214,-43.81758,-67.76843,319.7487,319.405,25,0.0.0.0,10.139.171.151,1,0
2013-11-12 15:08:51.812,524,52.4,52.1692,4.458856,55.62096,0,-1,57,30,1384265278,-0.1806641,-0.8222504,-0.7155762,14.52925,-43.65305,-67.25163,316.5097,316.166,25,0.0.0.0,10.139.171.151,1,0
2013-11-12 15:08:52.020,525,52.5,52.1692,4.458856,55.62096,0,-1,57,30,1384265278,-0.2446899,-0.8372345,-0.5697632,14.69449,-41.73351,-67.19421,316.6162,316.2725,25,0.0.0.0,10.139.171.151,1,0
2013-11-12 15:08:52.137,526,52.6,52.1692,4.458856,55.62096,0,-1,57,30,1384265278,-0.2642822,-0.8544617,-0.5707703,15.02496,-42.06258,-64.43796,315.1317,314.788,25,0.0.0.0,10.139.171.151,1,0
2013-11-12 15:08:52.218,527,52.7,52.1692,4.458856,55.62096,0,-1,57,30,1384265278,-0.2377777,-0.8239136,-0.4860535,14.30894,-42.55617,-64.26569,314.558,314.2143,25,0.0.0.0,10.139.171.151,1,0
2013-11-12 15:08:52.315,528,52.8,52.1692,4.458856,55.62096,0,-1,57,30,1384265278,-0.2415924,-0.8182373,-0.5143127,15.19019,-41.78836,-65.29929,313.8845,313.5407,25,0.0.0.0,10.139.171.151,1,0
2013-11-12 15:08:52.417,529,52.9,52.1692,4.458856,55.62096,0,-1,57,30,1384265278,-0.2331238,-0.8125763,-0.5181885,15.90621,-41.73351,-62.94499,312.0834,311.7397,25,0.0.0.0,10.139.171.151,1,0
2013-11-12 15:08:52.511,530,53,52.1692,4.458856,55.62096,0,-1,57,30,1384265278,-0.2033691,-0.8071136,-0.6056976,14.74957,-41.89804,-62.1985,311.9679,311.6241,25,0.0.0.0,10.139.171.151,1,0
2013-11-12 15:08:52.619,531,53.1,52.1692,4.458856,55.62096,0,-1,57,30,1384265278,-0.1689606,-0.7801208,-0.5696259,14.47417,-41.18507,-62.7153,310.7181,310.3744,25,0.0.0.0,10.139.171.151,1,0
2013-11-12 15:08:52.739,532,53.2,52.1692,4.458856,55.62096,0,-1,57,30,1384265278,-0.2540436,-0.8131104,-0.5163116,15.79605,-41.8432,-61.33717,308.1558,307.812,25,0.0.0.0,10.139.171.151,1,0
2013-11-12 15:08:52.816,533,53.3,52.1692,4.458856,55.62096,0,-1,57,30,1384265278,-0.3196411,-0.8315735,-0.428894,15.57574,-41.95289,-60.30359,307.2447,306.901,25,0.0.0.0,10.139.171.151,1,0
2013-11-12 15:08:53.002,534,53.4,52.1692,4.458856,55.62096,0,-1,57,30,1384265278,-0.4151154,-0.8486023,-0.4691467,16.23668,-41.95289,-60.18874,306.7268,306.3831,25,0.0.0.0,10.139.171.151,1,0
2013-11-12 15:08:53.102,535,53.5,52.1692,4.458856,55.62096,0,-1,57,30,1384265278,-0.1283264,-0.7262573,-0.5754242,17.44839,-41.29477,-60.64812,307.5844,307.2406,25,0.0.0.0,10.139.171.151,1,0
2013-11-12 15:08:53.211,536,53.6,52.1692,4.458856,55.62096,0,-1,57,30,1384265278,-0.2293701,-0.7658691,-0.5319061,17.33824,-41.73351,-59.84421,307.6406,307.2969,25,0.0.0.0,10.139.171.151,1,0
2013-11-12 15:08:53.301,537,53.7,52.1692,4.458856,55.62096,0,-1,57,30,1384265278,-0.2518311,-0.8250122,-0.5279541,17.77886,-42.06258,-59.26999,307.214,306.8703,25,0.0.0.0,10.139.171.151,1,0
2013-11-12 15:08:53.378,538,53.8,52.1692,4.458856,55.62096,0,-1,57,30,1384265278,-0.2518311,-0.8250122,-0.5279541,18.38472,-41.78836,-59.90163,307.7827,307.439,25,0.0.0.0,10.139.171.151,1,0
2013-11-12 15:08:53.495,539,53.9,52.1692,4.458856,55.62096,0,-1,57,30,1384265278,-0.1236725,-0.8345184,-0.4329834,19.2109,-40.85601,-60.53326,308.8624,308.5186,25,0.0.0.0,10.139.171.151,1,0
2013-11-12 15:08:53.575,540,54,52.1692,4.458856,55.62096,0,-1,57,30,1384265278,-0.1236725,-0.8345184,-0.4329834,19.43121,-40.30758,-60.53326,309.6356,309.2919,25,0.0.0.0,10.139.171.151,1,0
2013-11-12 15:08:53.663,541,54.1,52.1692,4.458856,55.62096,0,-1,57,30,1384265278,-0.2264862,-0.9517517,-0.8741302,20.91832,-40.14304,-59.32741,310.9727,310.629,25,0.0.0.0,10.139.171.151,1,0
2013-11-12 15:08:53.837,542,54.2,52.1692,4.458856,55.62096,0,-1,57,30,1384265278,-0.2566223,-0.8874664,-0.419754,21.79957,-40.36242,-59.5571,312.4684,312.1247,25,0.0.0.0,10.139.171.151,1,0
2013-11-12 15:08:54.021,543,54.3,52.1692,4.458856,55.62096,0,-1,57,30,1384265278,-0.2873993,-0.6993713,-0.434967,21.57925,-39.59461,-55.99695,312.5213,312.1776,25,0.0.0.0,10.139.171.151,1,0
2013-11-12 15:08:54.118,544,54.4,52.1692,4.458856,55.62096,0,-1,57,30,1384265278,-0.2155304,-0.7951813,-0.5006409,23.45191,-37.72992,-55.42273,312.3815,312.0378,25,0.0.0.0,10.139.171.151,1,0
2013-11-12 15:08:54.200,545,54.5,52.1692,4.458856,55.62096,0,-1,57,30,1384265278,-0.2155304,-0.7951813,-0.5006409,22.13004,-37.40086,-55.19304,312.936,312.5923,25,0.0.0.0,10.139.171.151,1,0
2013-11-12 15:08:54.310,546,54.6,52.16925,4.4589,41.96418,0.4427422,-1,19,10,1384265280,-0.1738434,-0.9815521,-0.5934448,20.80816,-37.0718,-53.70007,313.067,312.7233,25,0.0.0.0,10.139.171.151,1,0
2013-11-12 15:08:54.427,547,54.7,52.16925,4.4589,41.96418,0.4427422,-1,19,10,1384265280,-0.1738434,-0.9815521,-0.5934448,19.87183,-34.9329,-55.59499,314.9551,314.6114,25,0.0.0.0,10.139.171.151,1,0
2013-11-12 15:08:54.504,548,54.8,52.16925,4.4589,41.96418,0.4427422,-1,19,10,1384265280,-0.1368103,-0.8886871,-0.6178894,19.7066,-34.00055,-55.6524,312.109,311.7653,25,0.0.0.0,10.139.171.151,1,0
2013-11-12 15:08:54.583,549,54.9,52.16925,4.4589,41.96418,0.4427422,-1,19,10,1384265280,-0.1212921,-0.8718872,-0.5623779,19.37613,-32.90367,-55.76726,312.7368,312.3931,25,0.0.0.0,10.139.171.151,1,0
2013-11-12 15:08:54.685,550,55,52.16925,4.4589,41.96418,0.4427422,-1,19,10,1384265280,-0.228714,-0.7204895,-0.4833527,18.88042,-31.75195,-55.70984,312.8509,312.5071,25,0.0.0.0,10.139.171.151,1,0
2013-11-12 15:08:54.794,551,55.1,52.16925,4.4589,41.96418,0.4427422,-1,19,10,1384265280,-0.3714294,-0.8044891,-0.4681396,18.82535,-31.47773,-55.76726,314.5247,314.181,25,0.0.0.0,10.139.171.151,1,0
2013-11-12 15:08:54.978,552,55.2,52.16925,4.4589,41.96418,0.4427422,-1,19,10,1384265280,-0.2284698,-0.7238007,-0.524231,17.77886,-31.3132,-56.1692,316.1946,315.8509,25,0.0.0.0,10.139.171.151,1,0
2013-11-12 15:08:55.137,553,55.3,52.16925,4.4589,41.96418,0.4427422,-1,19,10,1384265280,-0.2037811,-0.9202728,-0.5830231,18.60503,-31.36805,-58.17897,315.5991,315.2554,25,0.0.0.0,10.139.171.151,1,0
2013-11-12 15:08:55.298,554,55.4,52.16925,4.4589,41.96418,0.4427422,-1,19,10,1384265280,-0.326004,-0.8712158,-0.5066986,18.16441,-31.69711,-59.09772,316.0018,315.6581,25,0.0.0.0,10.139.171.151,1,0
2013-11-12 15:08:55.393,555,55.5,52.16925,4.4589,41.96418,0.4427422,-1,19,10,1384265280,-0.2053986,-0.7340088,-0.5231476,17.50347,-31.58742,-59.78679,316.0995,315.7557,25,0.0.0.0,10.139.171.151,1,0
2013-11-12 15:08:55.499,556,55.6,52.16927,4.458908,39.60465,0.5496832,-1,19,10,1384265281,-0.1762238,-0.837677,-0.5743713,17.28316,-31.80679,-60.70554,318.0201,317.6764,25,0.0.0.0,10.139.171.151,1,0
2013-11-12 15:08:55.601,557,55.7,52.16927,4.458908,39.60465,0.5496832,-1,19,10,1384265281,-0.2093048,-0.7328491,-0.5095367,17.39332,-31.25835,-62.77272,319.139,318.7953,25,0.0.0.0,10.139.171.151,1,0
2013-11-12 15:08:55.720,558,55.8,52.16927,4.458908,39.60465,0.5496832,-1,19,10,1384265281,-0.1392212,-0.8755341,-0.5741272,17.39332,-31.8068,-63.00241,319.1907,318.847,25,0.0.0.0,10.139.171.151,1,0
2013-11-12 15:08:55.807,559,55.9,52.16927,4.458908,39.60465,0.5496832,-1,19,10,1384265281,-0.1388397,-0.8379822,-0.6345673,16.51207,-32.90368,-63.2321,319.3021,318.9584,25,0.0.0.0,10.139.171.151,1,0
2013-11-12 15:08:55.999,560,56,52.16927,4.458908,39.60465,0.5496832,-1,19,10,1384265281,-0.1388397,-0.8379822,-0.6345673,16.29176,-32.79398,-63.34694,318.9424,318.5986,25,0.0.0.0,10.139.171.151,1,0
2013-11-12 15:08:56.088,561,56.1,52.16927,4.458908,39.60465,0.5496832,-1,19,10,1384265281,-0.2153473,-0.7572632,-0.522171,16.51207,-32.79399,-64.15085,318.391,318.0473,25,0.0.0.0,10.139.171.151,1,0
2013-11-12 15:08:56.172,562,56.2,52.16927,4.458908,39.60465,0.5496832,-1,19,10,1384265281,-0.1739349,-0.8609009,-0.5431366,16.29176,-32.90368,-63.92116,318.0345,317.6907,25,0.0.0.0,10.139.171.151,1,0
2013-11-12 15:08:56.275,563,56.3,52.16927,4.458908,39.60465,0.5496832,-1,19,10,1384265281,-0.1739349,-0.8609009,-0.5431366,16.84254,-33.12305,-62.65788,317.7951,317.4514,25,0.0.0.0,10.139.171.151,1,0
2013-11-12 15:08:56.467,564,56.4,52.16927,4.458908,39.60465,0.5496832,-1,19,10,1384265281,-0.1915283,-0.8399963,-0.5403442,15.90621,-33.83601,-66.04578,319.1991,318.8554,25,0.0.0.0,10.139.171.151,1,0
2013-11-12 15:08:56.743,565,56.5,52.16927,4.458908,39.60465,0.5496832,-1,19,10,1384265281,-0.2487183,-0.7901154,-0.5523834,14.9148,-34.8232,-65.24187,319.719,319.3753,25,0.0.0.0,10.139.171.151,1,0
2013-11-12 15:08:57.005,566,56.6,52.16928,4.458915,36.31832,0.7017152,22.10372,19,10,1384265282,-0.1713104,-0.8464813,-0.5636139,14.52925,-34.21992,-68.05554,319.9029,319.5592,25,0.0.0.0,10.139.171.151,1,0
2013-11-12 15:08:57.102,567,56.7,52.16928,4.458915,36.31832,0.7017152,22.10372,19,10,1384265282,-0.1727905,-0.7837524,-0.5482025,14.69449,-35.48133,-68.2278,319.9944,319.6506,25,0.0.0.0,10.139.171.151,1,0
2013-11-12 15:08:57.202,568,56.8,52.16928,4.458915,36.31832,0.7017152,22.10372,19,10,1384265282,-0.2123108,-0.8800049,-0.5792542,13.75816,-36.52336,-67.36647,320.1236,319.7799,25,0.0.0.0,10.139.171.151,1,0
2013-11-12 15:08:57.311,569,56.9,52.16928,4.458915,36.31832,0.7017152,22.10372,19,10,1384265282,-0.2045746,-0.7991486,-0.5901337,13.31754,-36.74273,-68.40007,322.7357,322.392,25,0.0.0.0,10.139.171.151,1,0
2013-11-12 15:08:57.386,570,57,52.16928,4.458915,36.31832,0.7017152,22.10372,19,10,1384265282,-0.2064209,-0.8543854,-0.5432739,13.59293,-36.79758,-68.45749,322.6841,322.3404,25,0.0.0.0,10.139.171.151,1,0
2013-11-12 15:08:57.510,571,57.1,52.16928,4.458915,36.31832,0.7017152,22.10372,19,10,1384265282,-0.1927032,-0.7863007,-0.5482788,13.31754,-37.0718,-65.8735,322.3725,322.0288,25,0.0.0.0,10.139.171.151,1,0
2013-11-12 15:08:57.602,572,57.2,52.16928,4.458915,36.31832,0.7017152,22.10372,19,10,1384265282,-0.2161865,-0.8461609,-0.5209351,12.6566,-37.18148,-66.44772,320.4362,320.0925,25,0.0.0.0,10.139.171.151,1,0
2013-11-12 15:08:57.699,573,57.3,52.16928,4.458915,36.31832,0.7017152,22.10372,19,10,1384265282,-0.1949921,-0.8181915,-0.5141296,12.32613,-37.62023,-67.25163,319.8747,319.5309,25,0.0.0.0,10.139.171.151,1,0
2013-11-12 15:08:57.795,574,57.4,52.16928,4.458915,36.31832,0.7017152,22.10372,19,10,1384265282,-0.1974335,-0.8749847,-0.5315094,13.42769,-37.83961,-67.02194,319.8168,319.4731,25,0.0.0.0,10.139.171.151,1,0
2013-11-12 15:08:58.005,575,57.5,52.16928,4.458915,36.31832,0.7017152,22.10372,19,10,1384265282,-0.1974335,-0.8749847,-0.5315094,12.54644,-38.05898,-67.02194,319.6173,319.2736,25,0.0.0.0,10.139.171.151,1,0
2013-11-12 15:08:58.086,576,57.6,52.16928,4.458915,36.31832,0.7017152,22.10372,19,10,1384265282,-0.1859589,-0.8314209,-0.553009,13.26246,-37.4557,-66.62,319.5842,319.2404,25,0.0.0.0,10.139.171.151,1,0
2013-11-12 15:08:58.165,577,57.7,52.16928,4.458915,36.31832,0.7017152,22.10372,19,10,1384265282,-0.1859589,-0.8314209,-0.553009,13.37261,-38.55258,-66.50514,317.9873,317.6436,25,0.0.0.0,10.139.171.151,1,0
2013-11-12 15:08:58.279,578,57.8,52.16928,4.45892,36.7594,0.7961003,22.93368,19,10,1384265283,-0.1913452,-0.803009,-0.5560303,12.98707,-37.83961,-67.711,319.0407,318.697,25,0.0.0.0,10.139.171.151,1,0
2013-11-12 15:08:58.368,579,57.9,52.16928,4.45892,36.7594,0.7961003,22.93368,19,10,1384265283,-0.1903687,-0.8040009,-0.556015,13.53785,-37.51055,-67.36647,319.033,318.6893,25,0.0.0.0,10.139.171.151,1,0
2013-11-12 15:08:58.470,580,58,52.16928,4.45892,36.7594,0.7961003,22.93368,19,10,1384265283,-0.1865387,-0.8433533,-0.5763245,14.47417,-38.00414,-67.53874,319.0052,318.6615,25,0.0.0.0,10.139.171.151,1,0
2013-11-12 15:08:58.576,581,58.1,52.16928,4.45892,36.7594,0.7961003,22.93368,19,10,1384265283,-0.1931,-0.8106995,-0.5482025,14.63941,-37.72992,-67.82585,319.0063,318.6625,25,0.0.0.0,10.139.171.151,1,0
2013-11-12 15:08:58.736,582,58.2,52.16928,4.45892,36.7594,0.7961003,22.93368,19,10,1384265283,-0.2007904,-0.8104095,-0.5326538,13.59293,-38.44289,-67.19421,318.4216,318.0779,25,0.0.0.0,10.139.171.151,1,0
2013-11-12 15:08:59.003,583,58.3,52.16928,4.45892,36.7594,0.7961003,22.93368,19,10,1384265283,-0.1824341,-0.8216095,-0.5413361,13.86832,-38.60742,-67.94069,318.3703,318.0266,25,0.0.0.0,10.139.171.151,1,0
2013-11-12 15:08:59.103,584,58.4,52.16928,4.45892,36.7594,0.7961003,22.93368,19,10,1384265283,-0.1824341,-0.8216095,-0.5413361,14.4191,-37.9493,-68.51491,318.5632,318.2195,25,0.0.0.0,10.139.171.151,1,0
2013-11-12 15:08:59.210,585,58.5,52.16928,4.45892,36.7594,0.7961003,22.93368,19,10,1384265283,-0.2009583,-0.8456116,-0.5335388,14.14371,-38.11383,-68.91687,318.4086,318.0649,25,0.0.0.0,10.139.171.151,1,0
2013-11-12 15:08:59.303,586,58.6,52.16928,4.45892,36.7594,0.7961003,22.93368,19,10,1384265283,-0.1890869,-0.8214722,-0.5413513,15.46558,-38.3332,-69.14655,318.5549,318.2112,25,0.0.0.0,10.139.171.151,1,0
2013-11-12 15:08:59.381,587,58.7,52.16928,4.45892,36.7594,0.7961003,22.93368,19,10,1384265283,-0.1818085,-0.7611847,-0.5570526,15.52066,-38.38805,-69.43365,318.6372,318.2935,25,0.0.0.0,10.139.171.151,1,0
2013-11-12 15:08:59.487,588,58.8,52.16928,4.45892,36.7594,0.7961003,22.93368,19,10,1384265283,-0.1637421,-0.7624969,-0.556015,14.80465,-38.66227,-70.06531,320.462,320.1183,25,0.0.0.0,10.139.171.151,1,0
2013-11-12 15:08:59.585,589,58.9,52.16928,4.45892,36.7594,0.7961003,22.93368,19,10,1384265283,-0.1802826,-0.8305511,-0.552002,15.24527,-38.55258,-69.83562,320.3287,319.985,25,0.0.0.0,10.139.171.151,1,0
2013-11-12 15:08:59.694,590,59,52.1693,4.458922,36.64865,0.8585937,4.738825,19,10,1384265284,-0.1954041,-0.8360291,-0.5432892,15.57574,-38.00414,-69.03171,320.2573,319.9136,25,0.0.0.0,10.139.171.151,1,0
2013-11-12 15:08:59.778,591,59.1,52.1693,4.458922,36.64865,0.8585937,4.738825,19,10,1384265284,-0.1954041,-0.8360291,-0.5432892,16.29176,-38.8268,-68.28522,320.0436,319.6999,25,0.0.0.0,10.139.171.151,1,0
2013-11-12 15:08:59.995,592,59.2,52.1693,4.458922,36.64865,0.8585937,4.738825,19,10,1384265284,-0.1911926,-0.895752,-0.5460205,14.85972,-38.16867,-69.89304,319.8378,319.4941,25,0.0.0.0,10.139.171.151,1,0
2013-11-12 15:09:00.105,593,59.3,52.1693,4.458922,36.64865,0.8585937,4.738825,19,10,1384265284,-0.1603699,-0.8298798,-0.5421906,15.63082,-39.26554,-67.82585,319.6535,319.3098,25,0.0.0.0,10.139.171.151,1,0
2013-11-12 15:09:00.186,594,59.4,52.1693,4.458922,36.64865,0.8585937,4.738825,19,10,1384265284,-0.1558838,-0.8182526,-0.5431824,15.4105,-39.92367,-67.82585,319.3183,318.9745,25,0.0.0.0,10.139.171.151,1,0
2013-11-12 15:09:00.313,595,59.5,52.1693,4.458922,36.64865,0.8585937,4.738825,19,10,1384265284,-0.1558838,-0.8182526,-0.5431824,14.14371,-39.53977,-69.60593,317.6571,317.3134,25,0.0.0.0,10.139.171.151,1,0
2013-11-12 15:09:00.524,596,59.6,52.1693,4.458922,36.64865,0.8585937,4.738825,19,10,1384265284,-0.1600647,-0.8426361,-0.5470276,15.08004,-39.48492,-70.00787,317.6778,317.3341,25,0.0.0.0,10.139.171.151,1,0
2013-11-12 15:09:00.595,597,59.7,52.1693,4.458922,36.64865,0.8585937,4.738825,19,10,1384265284,-0.1611328,-0.8358459,-0.5538635,15.35543,-38.88164,-69.72076,317.6427,317.299,25,0.0.0.0,10.139.171.151,1,0
2013-11-12 15:09:00.773,598,59.8,52.1693,4.458922,36.64865,0.8585937,4.738825,19,10,1384265284,-0.1651001,-0.8289032,-0.5529175,14.80465,-38.77195,-70.06531,317.5586,317.2148,25,0.0.0.0,10.139.171.151,1,0
2013-11-12 15:09:01.051,599,59.9,52.1693,4.458922,36.64865,0.8585937,4.738825,19,10,1384265284,-0.1673889,-0.8122101,-0.5471344,13.31754,-38.8268,-72.18991,315.3402,314.9965,25,0.0.0.0,10.139.171.151,1,0
2013-11-12 15:09:01.242,600,60,52.1693,4.458923,37.4501,0.8669932,3.581196,19,10,1384265285,-0.1643219,-0.8201752,-0.5587921,12.38121,-37.67508,-70.8692,315.4276,315.0839,25,0.0.0.0,10.139.171.151,1,0
2013-11-12 15:09:01.309,601,60.1,52.1693,4.458923,37.4501,0.8669932,3.581196,19,10,1384265285,-0.1620636,-0.8386688,-0.546051,12.82183,-38.00414,-70.98405,315.4065,315.0627,25,0.0.0.0,10.139.171.151,1,0
2013-11-12 15:09:01.421,602,60.2,52.1693,4.458923,37.4501,0.8669932,3.581196,19,10,1384265285,-0.1505585,-0.8026276,-0.5344391,12.98707,-38.38805,-70.46725,312.3442,312.0005,25,0.0.0.0,10.139.171.151,1,0
2013-11-12 15:09:01.530,603,60.3,52.1693,4.458923,37.4501,0.8669932,3.581196,19,10,1384265285,-0.128006,-0.7904053,-0.5363312,11.94058,-38.11383,-70.18015,311.9137,311.57,25,0.0.0.0,10.139.171.151,1,0
2013-11-12 15:09:01.602,604,60.4,52.1693,4.458923,37.4501,0.8669932,3.581196,19,10,1384265285,-0.1595764,-0.8650818,-0.542099,11.27964,-38.44289,-70.06531,311.9021,311.5584,25,0.0.0.0,10.139.171.151,1,0
2013-11-12 15:09:01.711,605,60.5,52.1693,4.458923,37.4501,0.8669932,3.581196,19,10,1384265285,-0.1526337,-0.8330231,-0.5499268,10.45347,-39.48492,-69.43365,309.1735,308.8298,25,0.0.0.0,10.139.171.151,1,0
2013-11-12 15:09:01.810,606,60.6,52.1693,4.458923,37.4501,0.8669932,3.581196,19,10,1384265285,-0.1538391,-0.7344971,-0.5696869,10.50855,-39.64945,-68.80202,309.377,309.0333,25,0.0.0.0,10.139.171.151,1,0
2013-11-12 15:09:02.045,607,60.7,52.1693,4.458923,37.4501,0.8669932,3.581196,19,10,1384265285,-0.1433258,-0.7823944,-0.5500183,10.78394,-39.15586,-68.40007,308.5133,308.1696,25,0.0.0.0,10.139.171.151,1,0
2013-11-12 15:09:02.216,608,60.8,52.1693,4.458923,37.4501,0.8669932,3.581196,19,10,1384265285,-0.1401367,-0.8831024,-0.547821,10.06792,-38.77195,-67.88327,306.5681,306.2244,25,0.0.0.0,10.139.171.151,1,0
2013-11-12 15:09:02.303,609,60.9,52.1693,4.458923,37.4501,0.8669932,3.581196,19,10,1384265285,-0.1309204,-0.8284912,-0.5401306,7.479256,-37.83961,-69.08913,307.151,306.8073,25,0.0.0.0,10.139.171.151,1,0
2013-11-12 15:09:02.436,610,61,52.1693,4.458923,33.82899,0,3.581196,19,10,1384265286,-0.1309204,-0.8284912,-0.5401306,7.699566,-38.16867,-68.97429,306.5476,306.2039,25,0.0.0.0,10.139.171.151,1,0
2013-11-12 15:09:02.519,611,61.1,52.1693,4.458923,33.82899,0,3.581196,19,10,1384265286,-0.1333618,-0.8442078,-0.5547028,8.525738,-37.56539,-67.88327,305.6261,305.2823,25,0.0.0.0,10.139.171.151,1,0
2013-11-12 15:09:02.612,612,61.2,52.1693,4.458923,33.82899,0,3.581196,19,10,1384265286,-0.1344757,-0.8391876,-0.5420532,8.635895,-37.56539,-66.73483,304.0086,303.6649,25,0.0.0.0,10.139.171.151,1,0
2013-11-12 15:09:02.727,613,61.3,52.1693,4.458923,33.82899,0,3.581196,19,10,1384265286,-0.1413574,-0.8302307,-0.5391998,7.974957,-38.22351,-67.07936,304.5566,304.2129,25,0.0.0.0,10.139.171.151,1,0
2013-11-12 15:09:02.836,614,61.4,52.1693,4.458923,33.82899,0,3.581196,19,10,1384265286,-0.1490631,-0.8252106,-0.5411987,7.754646,-38.00414,-68.11296,304.5968,304.2531,25,0.0.0.0,10.139.171.151,1,0
2013-11-12 15:09:03.232,615,61.5,52.1693,4.458923,33.82899,0,3.581196,19,10,1384265286,-0.1490631,-0.8252106,-0.5411987,7.974957,-38.22351,-69.14655,304.7888,304.4451,25,0.0.0.0,10.139.171.151,1,0
2013-11-12 15:09:03.330,616,61.6,52.1693,4.458923,33.82899,0,3.581196,19,10,1384265286,-0.1469421,-0.8331604,-0.5508881,8.690971,-38.05898,-67.94069,305.708,305.3643,25,0.0.0.0,10.139.171.151,1,0
