time,timestamp,recordtime,lat,long,alt,speed,course,verticalAccuracy,horizontalAccuracy,locTimeStamp,accelerationX,accelerationY,accelerationZ,HeadingX,HeadingY,HeadingZ,TrueHeading,MagneticHeading,HeadingAccuracy,en0,pdp_ip0,DeviceOrientation,Event
2013-11-12 15:11:57.792,1,0.1,52.16994,4.457847,0,0.9996065,259.7522,9,5,1384265398,-0.1834106,-0.8813782,-0.4496613,16.73274,-35.04515,-12.41949,244.8486,244.5048,25,0.0.0.0,10.139.171.151,1,0
2013-11-12 15:11:58.066,2,0.2,52.16994,4.457822,0,1.007857,267.9608,9,5,1384265399,-0.2032928,-0.7951813,-0.4733276,16.62261,-35.26429,-12.53394,244.7668,244.423,25,0.0.0.0,10.139.171.151,1,0
2013-11-12 15:11:58.246,3,0.3,52.16994,4.457822,0,1.007857,267.9608,9,5,1384265399,-0.1668854,-0.8067017,-0.4780273,17.5587,-35.53822,-12.82005,244.739,244.3953,25,0.0.0.0,10.139.171.151,1,0
2013-11-12 15:11:58.369,4,0.4,52.16994,4.457822,0,1.007857,267.9608,9,5,1384265399,-0.1637268,-0.7988739,-0.5802612,16.29222,-35.26429,-12.1906,244.6201,244.2764,25,0.0.0.0,10.139.171.151,1,0
2013-11-12 15:11:58.512,5,0.5,52.16994,4.457822,0,1.007857,267.9608,9,5,1384265399,-0.1931,-0.7649384,-0.5639038,17.72389,-35.2643,-11.50391,242.816,242.4723,25,0.0.0.0,10.139.171.151,1,0
2013-11-12 15:11:58.674,6,0.6,52.16994,4.457822,0,1.007857,267.9608,9,5,1384265399,-0.1931,-0.7649384,-0.5639038,17.22832,-35.09995,-12.13337,242.8487,242.505,25,0.0.0.0,10.139.171.151,1,0
2013-11-12 15:11:58.769,7,0.7,52.16994,4.457822,0,1.007857,267.9608,9,5,1384265399,-0.183136,-0.8528595,-0.6473694,16.0169,-34.88081,-12.47672,243.1129,242.7692,25,0.0.0.0,10.139.171.151,1,0
2013-11-12 15:11:58.933,8,0.8,52.16994,4.457822,0,1.007857,267.9608,9,5,1384265399,-0.1483459,-0.7537384,-0.6338654,16.56754,-33.78511,-13.3923,246.8693,246.5256,25,0.0.0.0,10.139.171.151,1,0
2013-11-12 15:11:59.095,9,0.9,52.16994,4.457822,0,1.007857,267.9608,9,5,1384265399,-0.1878662,-0.767868,-0.6622162,15.35613,-34.55209,-14.76566,245.6846,245.3409,25,0.0.0.0,10.139.171.151,1,0
2013-11-12 15:11:59.284,10,1,52.16994,4.457822,0,1.007857,267.9608,9,5,1384265399,-0.3351288,-0.6877899,-0.6659393,14.08965,-33.51119,-17.91297,253.097,252.7533,25,0.0.0.0,10.139.171.151,1,0
2013-11-12 15:11:59.963,11,1.1,52.16995,4.457802,0,1.033044,290.6571,9,5,1384265400,-0.318634,-0.6439056,-0.5335541,17.61377,-34.05904,-16.88295,254.7239,254.3802,25,0.0.0.0,10.139.171.151,1,0
2013-11-12 15:12:00.209,12,1.2,52.16995,4.457802,0,1.033044,290.6571,9,5,1384265400,-0.3374786,-0.6915131,-0.5451965,17.72389,-34.05904,-16.65405,254.1933,253.8495,25,0.0.0.0,10.139.171.151,1,0
2013-11-12 15:12:00.485,13,1.3,52.16995,4.457802,0,1.033044,290.6571,9,5,1384265400,-0.3031921,-0.8212128,-0.5466614,18.38467,-33.8399,-16.99739,253.481,253.1373,25,0.0.0.0,10.139.171.151,1,0
2013-11-12 15:12:00.663,14,1.4,52.16995,4.457802,0,1.033044,290.6571,9,5,1384265400,-0.1682129,-0.8899384,-0.6102142,18.27454,-33.29205,-16.7685,253.5237,253.1799,25,0.0.0.0,10.139.171.151,1,0
2013-11-12 15:12:00.812,15,1.5,52.16995,4.457802,0,1.033044,290.6571,9,5,1384265400,-0.08378601,-0.8033447,-0.5721436,17.66883,-33.78511,-15.45235,253.3919,253.0481,25,0.0.0.0,10.139.171.151,1,0
2013-11-12 15:12:01.057,16,1.6,52.16995,4.457802,0,1.033044,290.6571,9,5,1384265400,-0.07099915,-0.7502747,-0.5128326,19.54102,-34.00425,-13.62119,252.9323,252.5886,25,0.0.0.0,10.139.171.151,1,0
2013-11-12 15:12:01.153,17,1.7,52.16995,4.457802,0,1.033044,290.6571,9,5,1384265400,-0.05302429,-0.9008026,-0.5834503,19.43089,-33.45641,-12.47672,252.7082,252.3645,25,0.0.0.0,10.139.171.151,1,0
2013-11-12 15:12:01.266,18,1.8,52.16995,4.45778,0,1.058514,277.2216,9,5,1384265401,-0.06829834,-0.8536987,-0.5972595,19.1005,-33.56598,-12.7056,252.5721,252.2284,25,0.0.0.0,10.139.171.151,1,0
2013-11-12 15:12:01.410,19,1.9,52.16995,4.45778,0,1.058514,277.2216,9,5,1384265401,-0.1178894,-0.7637482,-0.5947571,16.67767,-34.11382,-14.53677,252.32,251.9763,25,0.0.0.0,10.139.171.151,1,0
2013-11-12 15:12:01.531,20,2,52.16995,4.45778,0,1.058514,277.2216,9,5,1384265401,-0.102951,-0.885849,-0.5544739,16.84287,-34.1686,-14.82289,252.1372,251.7935,25,0.0.0.0,10.139.171.151,1,0
2013-11-12 15:12:01.640,21,2.1,52.16995,4.45778,0,1.058514,277.2216,9,5,1384265401,-0.001785278,-0.8828278,-0.6465759,15.85171,-34.05904,-14.93734,251.8773,251.5336,25,0.0.0.0,10.139.171.151,1,0
2013-11-12 15:12:01.842,22,2.2,52.16995,4.45778,0,1.058514,277.2216,9,5,1384265401,-0.1408234,-0.8536987,-0.5410919,16.12703,-34.11382,-16.25348,251.5763,251.2326,25,0.0.0.0,10.139.171.151,1,0
2013-11-12 15:12:02.103,23,2.3,52.16995,4.45778,0,1.058514,277.2216,9,5,1384265401,-0.1856079,-0.6854858,-0.5163879,15.08081,-34.60688,-16.65405,251.491,251.1472,25,0.0.0.0,10.139.171.151,1,0
2013-11-12 15:12:02.265,24,2.4,52.16995,4.45778,0,1.058514,277.2216,9,5,1384265401,-0.1280823,-0.8555908,-0.6130829,16.29222,-33.18249,-16.5396,251.4655,251.1218,25,0.0.0.0,10.139.171.151,1,0
2013-11-12 15:12:02.653,25,2.5,52.16995,4.45778,0,1.058514,277.2216,9,5,1384265401,-0.2888184,-0.7862091,-0.5330658,16.7878,-32.90856,-16.48238,251.4958,251.1521,25,0.0.0.0,10.139.171.151,1,0
2013-11-12 15:12:02.995,26,2.6,52.16996,4.457767,0,1.041648,309.6884,9,10,1384265402,-0.2522736,-0.8782806,-0.5852661,16.34729,-31.81288,-17.62685,254.1765,253.8327,25,0.0.0.0,10.139.171.151,1,0
2013-11-12 15:12:03.161,27,2.7,52.16996,4.457767,0,1.041648,309.6884,9,10,1384265402,-0.2476807,-0.8818054,-0.5326538,15.19094,-32.4155,-18.25631,254.0331,253.6894,25,0.0.0.0,10.139.171.151,1,0
2013-11-12 15:12:03.252,28,2.8,52.16996,4.457767,0,1.041648,309.6884,9,10,1384265402,-0.1370697,-0.8984985,-0.5136871,14.6403,-31.31982,-19.1719,257.6961,257.3524,25,0.0.0.0,10.139.171.151,1,0
2013-11-12 15:12:03.395,29,2.9,52.16996,4.457767,0,1.041648,309.6884,9,10,1384265402,-0.3243103,-0.7830963,-0.482605,15.13588,-30.82676,-20.03025,261.0081,260.6644,25,0.0.0.0,10.139.171.151,1,0
2013-11-12 15:12:03.517,30,3,52.16996,4.457767,0,1.041648,309.6884,9,10,1384265402,-0.09884644,-0.8893127,-0.6040955,14.36497,-30.38848,-19.34357,260.3786,260.0349,25,0.0.0.0,10.139.171.151,1,0
2013-11-12 15:12:03.631,31,3.1,52.16996,4.457767,0,1.041648,309.6884,9,10,1384265402,-0.1793365,-0.8324127,-0.5383606,14.75043,-31.97723,-18.7141,260.1612,259.8175,25,0.0.0.0,10.139.171.151,1,0
2013-11-12 15:12:03.796,32,3.2,52.16996,4.457767,0,1.041648,309.6884,9,10,1384265402,-0.01831055,-0.7809296,-0.6527405,14.6403,-32.63464,-16.65405,259.3846,259.0408,25,0.0.0.0,10.139.171.151,1,0
2013-11-12 15:12:04.083,33,3.3,52.16996,4.457767,0,1.041648,309.6884,9,10,1384265402,-0.1313782,-0.8330841,-0.8351135,16.40235,-33.40162,-16.65405,258.1317,257.788,25,0.0.0.0,10.139.171.151,1,0
2013-11-12 15:12:04.230,34,3.4,52.16996,4.457767,0,1.041648,309.6884,9,10,1384265402,-0.09326172,-0.8405762,-0.6061401,15.46626,-33.23727,-15.45235,257.0313,256.6876,25,0.0.0.0,10.139.171.151,1,0
2013-11-12 15:12:04.502,35,3.5,52.16996,4.457767,0,1.041648,309.6884,9,10,1384265402,0.1480713,-1.028854,-0.6865082,16.07197,-33.73033,-15.39513,255.8444,255.5007,25,0.0.0.0,10.139.171.151,1,0
2013-11-12 15:12:04.702,36,3.6,52.16996,4.457757,0,0.987434,309.1499,9,10,1384265403,-0.147995,-0.930954,-0.6694031,16.73274,-35.26429,-15.28068,254.5153,254.1716,25,0.0.0.0,10.139.171.151,1,0
2013-11-12 15:12:05.082,37,3.7,52.16996,4.457757,0,0.987434,309.1499,9,10,1384265403,-0.1620789,-0.665802,-0.558197,16.12703,-35.31908,-13.85008,252.3524,252.0087,25,0.0.0.0,10.139.171.151,1,0
2013-11-12 15:12:05.316,38,3.8,52.16996,4.457757,0,0.987434,309.1499,9,10,1384265403,0.01251221,-0.9551697,-0.5070953,16.34729,-35.09994,-14.88012,250.9899,250.6462,25,0.0.0.0,10.139.171.151,1,0
2013-11-12 15:12:05.552,39,3.9,52.16996,4.457757,0,0.987434,309.1499,9,10,1384265403,-0.1826324,-0.7529755,-0.6252441,15.68652,-35.53822,-14.42232,249.5225,249.1788,25,0.0.0.0,10.139.171.151,1,0
2013-11-12 15:12:05.659,40,4,52.16996,4.457757,0,0.987434,309.1499,9,10,1384265403,-0.1971283,-0.8335571,-0.5988007,16.51248,-34.60688,-13.90731,248.4446,248.1008,25,0.0.0.0,10.139.171.151,1,0
2013-11-12 15:12:05.825,41,4.1,52.16996,4.457757,0,0.987434,309.1499,9,10,1384265403,-0.1150818,-0.8562012,-0.5429077,17.39351,-34.82602,-14.02176,245.4092,245.0655,25,0.0.0.0,10.139.171.151,1,0
2013-11-12 15:12:06.185,42,4.2,52.16996,4.457757,0,0.987434,309.1499,9,10,1384265403,-0.1515045,-0.8418579,-0.5499115,16.73274,-35.04515,-12.64838,241.4932,241.1495,25,0.0.0.0,10.139.171.151,1,0
2013-11-12 15:12:06.371,43,4.3,52.16996,4.457757,0,0.987434,309.1499,9,10,1384265403,-0.06994629,-0.8271179,-0.576889,16.89793,-34.44253,-13.04896,243.3964,243.0527,25,0.0.0.0,10.139.171.151,1,0
2013-11-12 15:12:06.512,44,4.4,52.16996,4.457757,0,0.987434,309.1499,9,10,1384265403,-0.07316589,-0.8506012,-0.5875549,16.34729,-34.77123,-13.73564,243.4331,243.0894,25,0.0.0.0,10.139.171.151,1,0
2013-11-12 15:12:06.657,45,4.5,52.16996,4.457744,0,1.00046,290.7599,9,10,1384265404,-0.1102905,-0.8152313,-0.5410767,17.5587,-34.22339,-14.76566,247.1656,246.8219,25,0.0.0.0,10.139.171.151,1,0
2013-11-12 15:12:06.768,46,4.6,52.16996,4.457744,0,1.00046,290.7599,9,10,1384265404,-0.1985931,-0.8511963,-0.6065369,16.12703,-33.89468,-15.45235,248.0299,247.6862,25,0.0.0.0,10.139.171.151,1,0
2013-11-12 15:12:06.989,47,4.7,52.16996,4.457744,0,1.00046,290.7599,9,10,1384265404,-0.2021179,-0.8311157,-0.5550232,16.12703,-34.33296,-14.88012,245.829,245.4853,25,0.0.0.0,10.139.171.151,1,0
2013-11-12 15:12:07.185,48,4.8,52.16996,4.457744,0,1.00046,290.7599,9,10,1384265404,-0.1672668,-0.8180695,-0.5471191,16.73274,-31.97723,-16.42515,249.1747,248.8309,25,0.0.0.0,10.139.171.151,1,0
2013-11-12 15:12:07.330,49,4.9,52.16996,4.457744,0,1.00046,290.7599,9,10,1384265404,-0.1841888,-0.8573303,-0.605484,18.27454,-33.18249,-16.42515,248.0469,247.7032,25,0.0.0.0,10.139.171.151,1,0
2013-11-12 15:12:07.444,50,5,52.16996,4.457744,0,1.00046,290.7599,9,10,1384265404,-0.1521912,-0.8059387,-0.5772705,18.93531,-33.51119,-16.65405,248.3077,247.9639,25,0.0.0.0,10.139.171.151,1,0
2013-11-12 15:12:07.532,51,5.1,52.16996,4.457744,0,1.00046,290.7599,9,10,1384265404,-0.2170105,-0.72966,-0.4988556,18.38467,-33.62077,-15.05179,248.3355,247.9918,25,0.0.0.0,10.139.171.151,1,0
2013-11-12 15:12:07.678,52,5.2,52.16996,4.457727,0,1.0165,273.9639,9,5,1384265405,-0.2387238,-0.8192444,-0.5084381,18.82518,-33.18249,-16.08181,248.412,248.0683,25,0.0.0.0,10.139.171.151,1,0
2013-11-12 15:12:07.860,53,5.3,52.16996,4.457727,0,1.0165,273.9639,9,5,1384265405,-0.2159882,-0.8596802,-0.5004578,19.21063,-32.799,-15.5668,248.7521,248.4084,25,0.0.0.0,10.139.171.151,1,0
2013-11-12 15:12:08.183,54,5.4,52.16996,4.457727,0,1.0165,273.9639,9,5,1384265405,-0.1613312,-0.8345184,-0.516861,20.31191,-34.66167,-12.9345,252.4307,252.087,25,0.0.0.0,10.139.171.151,1,0
2013-11-12 15:12:08.388,55,5.5,52.16996,4.457727,0,1.0165,273.9639,9,5,1384265405,-0.1268921,-0.8392944,-0.5371552,19.59608,-33.29205,-12.87728,250.6039,250.2601,25,0.0.0.0,10.139.171.151,1,0
2013-11-12 15:12:08.520,56,5.6,52.16996,4.457727,0,1.0165,273.9639,9,5,1384265405,-0.1631775,-0.798172,-0.500412,18.49479,-33.40162,-15.62402,254.1776,253.8338,25,0.0.0.0,10.139.171.151,1,0
2013-11-12 15:12:08.672,57,5.7,52.16996,4.457727,0,1.0165,273.9639,9,5,1384265405,-0.1718292,-0.8697052,-0.5401917,15.246,-32.57986,-17.7413,257.2185,256.8748,25,0.0.0.0,10.139.171.151,1,0
2013-11-12 15:12:08.775,58,5.8,52.16996,4.457727,0,1.0165,273.9639,9,5,1384265405,-0.1737823,-0.8639679,-0.5596924,14.75043,-31.10068,-19.51524,262.1513,261.8076,25,0.0.0.0,10.139.171.151,1,0
2013-11-12 15:12:08.982,59,5.9,52.16996,4.457714,0,1.018159,299.7195,9.373249,10,1384265406,-0.1646118,-0.8438416,-0.582077,13.15356,-30.49805,-23.34923,266.4227,266.079,25,0.0.0.0,10.139.171.151,1,0
2013-11-12 15:12:09.109,60,6,52.16996,4.457714,0,1.018159,299.7195,9.373249,10,1384265406,-0.1226654,-0.8084106,-0.570343,11.77696,-29.67629,-24.43648,270.2097,269.866,25,0.0.0.0,10.139.171.151,1,0
2013-11-12 15:12:09.203,61,6.1,52.16996,4.457714,0,1.018159,299.7195,9.373249,10,1384265406,-0.07159424,-0.7892456,-0.6081696,11.66683,-29.78585,-25.23761,276.1653,275.8215,25,0.0.0.0,10.139.171.151,1,0
2013-11-12 15:12:09.335,62,6.2,52.16996,4.457714,0,1.018159,299.7195,9.373249,10,1384265406,-0.1238861,-0.8340302,-0.5975189,10.12503,-30.00499,-26.95433,280.4864,280.1427,25,0.0.0.0,10.139.171.151,1,0
2013-11-12 15:12:09.445,63,6.3,52.16996,4.457714,0,1.018159,299.7195,9.373249,10,1384265406,-0.2151642,-0.8790283,-0.5870514,9.904774,-30.22413,-28.3277,281.8547,281.511,25,0.0.0.0,10.139.171.151,1,0
2013-11-12 15:12:09.531,64,6.4,52.16996,4.457714,0,1.018159,299.7195,9.373249,10,1384265406,-0.1994324,-0.6981964,-0.5485229,8.693359,-31.42939,-28.55659,277.9202,277.5765,25,0.0.0.0,10.139.171.151,1,0
2013-11-12 15:12:09.655,65,6.5,52.16996,4.457714,0,1.018159,299.7195,9.373249,10,1384265406,-0.1702271,-0.8495636,-0.5791626,7.922461,-31.64852,-30.38776,280.922,280.5782,25,0.0.0.0,10.139.171.151,1,0
2013-11-12 15:12:09.818,66,6.6,52.16996,4.457714,0,1.018159,299.7195,9.373249,10,1384265406,-0.1201782,-0.8068695,-0.5021667,6.981686,-31.3152,-31.78988,283.7565,283.4128,25,0.0.0.0,10.139.171.151,1,0
2013-11-12 15:12:10.081,67,6.7,52.16996,4.457714,0,1.018159,299.7195,9.373249,10,1384265406,-0.1944885,-0.9191437,-0.5459747,7.862638,-31.86299,-32.4764,283.1992,282.8555,25,0.0.0.0,10.139.171.151,1,0
2013-11-12 15:12:10.223,68,6.8,52.16996,4.457705,0,0.9982522,308.911,9.32196,10,1384265407,-0.1305695,-0.722702,-0.5131378,7.036747,-31.26041,-31.73267,283.0865,282.7428,25,0.0.0.0,10.139.171.151,1,0
2013-11-12 15:12:10.502,69,6.9,52.16996,4.457705,0,0.9982522,308.911,9.32196,10,1384265407,-0.1152802,-0.7997284,-0.5683746,6.155794,-30.60306,-30.70289,282.941,282.5973,25,0.0.0.0,10.139.171.151,1,0
2013-11-12 15:12:10.799,70,7,52.16996,4.457705,0,0.9982522,308.911,9.32196,10,1384265407,-0.1292877,-0.7290344,-0.5588837,6.431091,-30.98652,-31.67547,282.993,282.6493,25,0.0.0.0,10.139.171.151,1,0
2013-11-12 15:12:11.024,71,7.1,52.16996,4.457705,0,0.9982522,308.911,9.32196,10,1384265407,-0.1743469,-0.7909241,-0.5881042,7.752518,-30.7674,-31.33219,282.4641,282.1204,25,0.0.0.0,10.139.171.151,1,0
2013-11-12 15:12:11.149,72,7.2,52.16996,4.457705,0,0.9982522,308.911,9.32196,10,1384265407,-0.1646118,-0.7504272,-0.6290741,5.935558,-31.15086,-32.53362,282.9828,282.639,25,0.0.0.0,10.139.171.151,1,0
2013-11-12 15:12:11.263,73,7.3,52.16996,4.457705,0,0.9982522,308.911,9.32196,10,1384265407,-0.07983398,-0.5366058,-0.4618378,6.431091,-30.87696,-33.27735,283.8585,283.5147,25,0.0.0.0,10.139.171.151,1,0
2013-11-12 15:12:11.387,74,7.4,52.16996,4.457705,0,0.9982522,308.911,9.32196,10,1384265407,-0.2540588,-0.95784,-0.6337433,6.155794,-31.69865,-32.64803,283.6078,283.264,25,0.0.0.0,10.139.171.151,1,0
2013-11-12 15:12:11.604,75,7.5,52.16996,4.457705,0,0.9982522,308.911,9.32196,10,1384265407,-0.1389008,-0.8622131,-0.5040436,6.210855,-32.08211,-32.93409,280.8047,280.461,25,0.0.0.0,10.139.171.151,1,0
2013-11-12 15:12:11.761,76,7.6,52.16996,4.457705,0,0.9982522,308.911,9.32196,10,1384265407,-0.2197266,-0.7402039,-0.4822998,6.100735,-32.52034,-34.19271,280.9366,280.5929,25,0.0.0.0,10.139.171.151,1,0
2013-11-12 15:12:12.036,77,7.7,52.16997,4.4577,0,0.3314611,303.0321,9.29586,10,1384265408,-0.197403,-0.8712769,-0.5539093,6.100735,-31.09608,-32.36199,281.1115,280.7678,25,0.0.0.0,10.139.171.151,1,0
2013-11-12 15:12:12.195,78,7.8,52.16997,4.4577,0,0.3314611,303.0321,9.29586,10,1384265408,-0.1964722,-0.8666382,-0.5792236,5.990618,-30.98652,-33.62061,281.337,280.9933,25,0.0.0.0,10.139.171.151,1,0
2013-11-12 15:12:12.346,79,7.9,52.16997,4.4577,0,0.3314611,303.0321,9.29586,10,1384265408,-0.2585602,-0.8527069,-0.5805054,5.660261,-31.64388,-30.188,281.4116,281.0679,25,0.0.0.0,10.139.171.151,1,0
2013-11-12 15:12:12.472,80,8,52.16997,4.4577,0,0.3314611,303.0321,9.29586,10,1384265408,-0.2609406,-0.8395996,-0.5415955,4.779308,-31.86299,-29.04379,281.2596,280.9159,25,0.0.0.0,10.139.171.151,1,0
2013-11-12 15:12:12.634,81,8.1,52.16997,4.4577,0,0.3314611,303.0321,9.29586,10,1384265408,-0.1276703,-0.806015,-0.5323792,4.779308,-31.53431,-29.38706,281.1898,280.8461,25,0.0.0.0,10.139.171.151,1,0
2013-11-12 15:12:12.799,82,8.2,52.16997,4.4577,0,0.3314611,303.0321,9.29586,10,1384265408,-0.2543945,-0.9600372,-0.5529327,4.889429,-31.53431,-28.70052,281.197,280.8532,25,0.0.0.0,10.139.171.151,1,0
2013-11-12 15:12:13.042,83,8.3,52.16997,4.4577,0,0.3314611,303.0321,9.29586,10,1384265408,-0.1162567,-0.7315063,-0.4819183,5.219784,-31.53431,-29.61588,281.2058,280.8621,25,0.0.0.0,10.139.171.151,1,0
2013-11-12 15:12:13.170,84,8.400001,52.16997,4.4577,0,0.3314611,303.0321,9.29586,10,1384265408,-0.3177338,-0.9838409,-0.5141754,4.944487,-31.58909,-28.30006,281.1033,280.7596,25,0.0.0.0,10.139.171.151,1,0
2013-11-12 15:12:13.278,85,8.5,52.16997,4.4577,0,0,303.0321,9.561489,10,1384265409,-0.2526398,-0.8757172,-0.5171051,5.6052,-31.04129,-28.87215,281.0991,280.7554,25,0.0.0.0,10.139.171.151,1,0
2013-11-12 15:12:13.402,86,8.6,52.16997,4.4577,0,0,303.0321,9.561489,10,1384265409,-0.2338104,-0.8140106,-0.570755,5.164726,-30.93174,-29.21542,281.1719,280.8282,25,0.0.0.0,10.139.171.151,1,0
2013-11-12 15:12:13.533,87,8.7,52.16997,4.4577,0,0,303.0321,9.561489,10,1384265409,-0.2300873,-0.8494415,-0.5881653,6.045675,-32.24645,-29.21542,281.226,280.8823,25,0.0.0.0,10.139.171.151,1,0
2013-11-12 15:12:13.637,88,8.8,52.16997,4.4577,0,0,303.0321,9.561489,10,1384265409,-0.2571411,-0.7920685,-0.5709076,6.155794,-31.69865,-28.64332,281.2583,280.9146,25,0.0.0.0,10.139.171.151,1,0
2013-11-12 15:12:13.819,89,8.900001,52.16997,4.4577,0,0,303.0321,9.561489,10,1384265409,-0.2000122,-0.7082825,-0.5825806,5.880497,-32.19167,-29.27262,281.2846,280.9409,25,0.0.0.0,10.139.171.151,1,0
2013-11-12 15:12:14.086,90,9,52.16997,4.4577,0,0,303.0321,9.561489,10,1384265409,-0.1641846,-0.8045044,-0.6639709,5.384962,-31.69865,-28.18563,281.3257,280.9819,25,0.0.0.0,10.139.171.151,1,0
2013-11-12 15:12:14.232,91,9.1,52.16997,4.4577,0,0,303.0321,9.561489,10,1384265409,-0.1775513,-0.8135223,-0.6094666,5.384962,-31.26041,-28.41447,281.3889,281.0451,25,0.0.0.0,10.139.171.151,1,0
2013-11-12 15:12:14.377,92,9.2,52.16997,4.4577,0,0,303.0321,9.561489,10,1384265409,-0.1741791,-0.7557831,-0.5911102,5.164726,-32.02733,-28.30006,283.4406,283.0969,25,0.0.0.0,10.139.171.151,1,0
2013-11-12 15:12:14.531,93,9.3,52.16997,4.4577,0,0,303.0321,9.561489,10,1384265409,-0.168335,-0.8009796,-0.6065521,5.715321,-31.0413,-29.6731,289.0062,288.6625,25,0.0.0.0,10.139.171.151,1,0
2013-11-12 15:12:14.682,94,9.400001,52.16997,4.4577,0,0,303.0321,9.736755,10,1384265410,-0.1928101,-0.8187408,-0.5705872,5.219784,-30.54828,-28.014,288.1987,287.855,25,0.0.0.0,10.139.171.151,1,0
2013-11-12 15:12:14.802,95,9.5,52.16997,4.4577,0,0,303.0321,9.736755,10,1384265410,-0.1434937,-0.8119507,-0.5762329,5.384962,-29.50747,-31.27499,293.5878,293.244,25,0.0.0.0,10.139.171.151,1,0
2013-11-12 15:12:15.036,96,9.6,52.16997,4.4577,0,0,303.0321,9.736755,10,1384265410,-0.198288,-0.7723999,-0.6456909,3.953417,-29.06924,-32.76246,302.0447,301.701,25,0.0.0.0,10.139.171.151,1,0
2013-11-12 15:12:15.158,97,9.7,52.16997,4.4577,0,0,303.0321,9.736755,10,1384265410,-0.2532959,-0.7529449,-0.5602875,3.788239,-28.57622,-34.53599,308.6666,308.3229,25,0.0.0.0,10.139.171.151,1,0
2013-11-12 15:12:15.277,98,9.8,52.16997,4.4577,0,0,303.0321,9.736755,10,1384265410,-0.2280426,-0.9468994,-0.553833,4.063538,-28.19276,-36.19508,315.2273,314.8836,25,0.0.0.0,10.139.171.151,1,0
2013-11-12 15:12:15.391,99,9.900001,52.16997,4.4577,0,0,303.0321,9.736755,10,1384265410,-0.1130371,-0.7799377,-0.533371,3.512941,-28.30232,-36.65276,316.9405,316.5968,25,0.0.0.0,10.139.171.151,1,0
2013-11-12 15:12:15.514,100,10,52.16997,4.4577,0,0,303.0321,9.736755,10,1384265410,-0.2097626,-0.8281403,-0.5657654,4.779308,-27.91887,-36.82439,315.4803,315.1365,25,0.0.0.0,10.139.171.151,1,0
2013-11-12 15:12:16.028,101,10.1,52.16997,4.4577,0,0,303.0321,9.736755,10,1384265410,-0.2346191,-0.826416,-0.5385895,3.898357,-27.69975,-35.90902,315.0041,314.6604,25,0.0.0.0,10.139.171.151,1,0
2013-11-12 15:12:16.319,102,10.2,52.16997,4.4577,0,0,303.0321,9.736755,10,1384265410,-0.1930542,-0.8257141,-0.6932373,3.62306,-26.76849,-37.79697,316.3777,316.0339,25,0.0.0.0,10.139.171.151,1,0
2013-11-12 15:12:16.493,103,10.3,52.16997,4.457697,0,0.04444163,345.7243,9.5,5,1384265411,-0.04489136,-0.8197937,-0.6868286,4.724249,-26.98761,-37.91138,316.7301,316.3864,25,0.0.0.0,10.139.171.151,1,0
2013-11-12 15:12:16.645,104,10.4,52.16997,4.457697,0,0.04444163,345.7243,9.5,5,1384265411,-0.07258606,-0.7816315,-0.6354523,3.347763,-27.15195,-36.36671,316.9975,316.6538,25,0.0.0.0,10.139.171.151,1,0
2013-11-12 15:12:16.762,105,10.5,52.16997,4.457697,0,0.04444163,345.7243,9.5,5,1384265411,-0.01383972,-0.7589874,-0.7033997,4.173655,-26.2207,-36.99603,317.496,317.1523,25,0.0.0.0,10.139.171.151,1,0
2013-11-12 15:12:16.880,106,10.6,52.16997,4.457697,0,0.04444163,345.7243,9.5,5,1384265411,-0.1950989,-0.7665863,-0.535675,3.017406,-26.93283,-37.73977,317.5784,317.2347,25,0.0.0.0,10.139.171.151,1,0
2013-11-12 15:12:17.093,107,10.7,52.16997,4.457697,0,0.04444163,345.7243,9.5,5,1384265411,-0.1266174,-0.7698212,-0.5266571,4.118595,-27.37107,-37.05323,317.7037,317.36,25,0.0.0.0,10.139.171.151,1,0
2013-11-12 15:12:17.287,108,10.8,52.16997,4.457697,0,0.04444163,345.7243,9.5,5,1384265411,-0.244751,-0.6821136,-0.4913177,3.237644,-27.48063,-37.96861,318.2205,317.8768,25,0.0.0.0,10.139.171.151,1,0
2013-11-12 15:12:17.482,109,10.9,52.16998,4.457698,0,0.09375305,8.94667,9.691479,10,1384265412,-0.3244324,-0.8930206,-0.5368347,2.907288,-26.16592,-39.45608,319.0945,318.7508,25,0.0.0.0,10.139.171.151,1,0
2013-11-12 15:12:17.642,110,11,52.16998,4.457698,0,0.09375305,8.94667,9.691479,10,1384265412,-0.3399048,-0.912796,-0.5952454,3.62306,-26.43981,-38.25466,319.4694,319.1256,25,0.0.0.0,10.139.171.151,1,0
2013-11-12 15:12:17.794,111,11.1,52.16998,4.457698,0,0.09375305,8.94667,9.691479,10,1384265412,-0.3589783,-0.8777313,-0.5418854,4.008476,-26.82327,-39.11282,320.0811,319.7374,25,0.0.0.0,10.139.171.151,1,0
2013-11-12 15:12:18.049,112,11.2,52.16998,4.457698,0,0.09375305,8.94667,9.691479,10,1384265412,-0.2369232,-0.725647,-0.5320435,3.072466,-26.87805,-38.25466,320.5325,320.1888,25,0.0.0.0,10.139.171.151,1,0
2013-11-12 15:12:18.180,113,11.3,52.16998,4.457698,0,0.09375305,8.94667,9.691479,10,1384265412,-0.2218781,-0.9217529,-0.5694427,1.090324,-27.09717,-37.91138,329.8785,329.5348,25,0.0.0.0,10.139.171.151,1,0
2013-11-12 15:12:18.332,114,11.4,52.16998,4.457698,0,0.09375305,8.94667,9.691479,10,1384265412,-0.114212,-0.8121185,-0.5313416,1.640919,-27.42585,-38.48348,328.6983,328.3546,25,0.0.0.0,10.139.171.151,1,0
2013-11-12 15:12:18.446,115,11.5,52.16998,4.457698,0,0.09375305,8.94667,9.691479,10,1384265412,-0.02149963,-0.6700439,-0.5021515,1.255501,-26.82327,-39.57049,328.9779,328.6342,25,0.0.0.0,10.139.171.151,1,0
2013-11-12 15:12:18.597,116,11.6,52.16998,4.457698,0,0.09375305,8.94667,9.691479,10,1384265412,-0.09542847,-0.9512024,-0.6311951,0.925148,-26.82327,-39.57049,329.0583,328.7146,25,0.0.0.0,10.139.171.151,1,0
2013-11-12 15:12:18.728,117,11.7,52.16998,4.457698,0,0.09375305,8.94667,9.691479,10,1384265412,-0.03608704,-0.7522736,-0.6558075,1.751038,-25.23466,-38.94118,328.1776,327.8339,25,0.0.0.0,10.139.171.151,1,0
2013-11-12 15:12:18.830,118,11.8,52.16998,4.457698,0,0.09375305,8.94667,9.691479,10,1384265412,-0.04852295,-0.8695221,-0.6837769,1.916218,-24.74165,-38.65513,329.349,329.0053,25,0.0.0.0,10.139.171.151,1,0
2013-11-12 15:12:19.060,119,11.9,52.16998,4.457699,0,0.1421036,12.03643,9.612788,10,1384265413,-0.004928589,-0.7019653,-0.6451111,2.136456,-26.27547,-38.08302,329.0836,328.7398,25,0.0.0.0,10.139.171.151,1,0
2013-11-12 15:12:19.152,120,12,52.16998,4.457699,0,0.1421036,12.03643,9.612788,10,1384265413,-0.1021881,-1.036713,-0.8111115,3.402822,-26.2207,-37.45371,329.815,329.4713,25,0.0.0.0,10.139.171.151,1,0
2013-11-12 15:12:19.278,121,12.1,52.16998,4.457699,0,0.1421036,12.03643,9.612788,10,1384265413,-0.2121735,-0.7747955,-0.5074921,5.109665,-27.48063,-35.22251,326.0802,325.7365,25,0.0.0.0,10.139.171.151,1,0
2013-11-12 15:12:19.389,122,12.2,52.16998,4.457699,0,0.1421036,12.03643,9.612788,10,1384265413,-0.06594849,-0.707962,-0.5781708,5.55014,-26.71371,-33.0485,325.2198,324.8761,25,0.0.0.0,10.139.171.151,1,0
2013-11-12 15:12:19.484,123,12.3,52.16998,4.457699,0,0.1421036,12.03643,9.612788,10,1384265413,-0.08050537,-0.791214,-0.5195923,7.367104,-26.76849,-31.73267,323.7981,323.4543,25,0.0.0.0,10.139.171.151,1,0
2013-11-12 15:12:19.615,124,12.4,52.16998,4.457699,0,0.1421036,12.03643,9.612788,10,1384265413,-0.2174225,-0.8978729,-0.6220703,7.201923,-26.05635,-32.24758,321.6309,321.2871,25,0.0.0.0,10.139.171.151,1,0
2013-11-12 15:12:19.732,125,12.5,52.16998,4.457699,0,0.1421036,12.03643,9.612788,10,1384265413,-0.2031403,-0.7179565,-0.4705811,8.137936,-26.11113,-32.87688,318.9754,318.6317,25,0.0.0.0,10.139.171.151,1,0
2013-11-12 15:12:20.000,126,12.6,52.16998,4.457699,0,0.1421036,12.03643,9.612788,10,1384265413,-0.1946716,-0.7310638,-0.3877869,8.303112,-24.52253,-31.9043,318.4148,318.071,25,0.0.0.0,10.139.171.151,1,0
2013-11-12 15:12:20.126,127,12.7,52.16998,4.457699,0,0.1421036,12.03643,9.612788,10,1384265413,-0.1454773,-0.8332825,-0.4535217,7.587341,-24.13907,-33.67783,321.5261,321.1823,25,0.0.0.0,10.139.171.151,1,0
2013-11-12 15:12:20.283,128,12.8,52.16998,4.457696,0,0.2066083,334.9852,9.543935,10,1384265414,-0.2253418,-0.7738495,-0.541626,6.045675,-24.79642,-35.16529,324.0302,323.6864,25,0.0.0.0,10.139.171.151,1,0
2013-11-12 15:12:20.422,129,12.9,52.16998,4.457696,0,0.2066083,334.9852,9.543935,10,1384265414,-0.1572113,-0.6633453,-0.5980988,3.898357,-24.19385,-35.56576,328.9211,328.5774,25,0.0.0.0,10.139.171.151,1,0
2013-11-12 15:12:20.567,130,13,52.16998,4.457696,0,0.2066083,334.9852,9.543935,10,1384265414,-0.3730927,-0.912323,-0.6158295,3.953417,-24.02952,-36.65276,329.2794,328.9357,25,0.0.0.0,10.139.171.151,1,0
2013-11-12 15:12:20.679,131,13.1,52.16998,4.457696,0,0.2066083,334.9852,9.543935,10,1384265414,-0.2605286,-0.8208313,-0.5163269,2.907288,-24.85121,-36.93882,330.5881,330.2444,25,0.0.0.0,10.139.171.151,1,0
2013-11-12 15:12:20.815,132,13.2,52.16998,4.457696,0,0.2066083,334.9852,9.543935,10,1384265414,-0.1062469,-1.014755,-0.6583252,2.026337,-24.96077,-38.65513,331.56,331.2163,25,0.0.0.0,10.139.171.151,1,0
2013-11-12 15:12:21.033,133,13.3,52.16998,4.457696,0,0.2066083,334.9852,9.543935,10,1384265414,0.02363586,-0.918396,-0.6317749,1.585861,-25.07032,-37.28208,331.227,330.8833,25,0.0.0.0,10.139.171.151,1,0
2013-11-12 15:12:21.206,134,13.4,52.16998,4.457696,0,0.2066083,334.9852,9.543935,10,1384265414,0.256424,-0.614212,-0.6345978,1.365623,-24.41297,-38.54072,331.5305,331.1868,25,0.0.0.0,10.139.171.151,1,0
2013-11-12 15:12:21.419,135,13.5,52.16998,4.457696,0,0.2066083,334.9852,9.543935,10,1384265414,0.07125854,-0.8596497,-0.733017,1.640919,-27.09717,-38.59792,328.9399,328.5962,25,0.0.0.0,10.139.171.151,1,0
2013-11-12 15:12:21.685,136,13.6,52.16999,4.457696,0,0.3045092,352.1118,9.47794,10,1384265415,-0.1301727,-0.7263031,-0.584198,0.4296112,-26.76849,-40.42864,329.1612,328.8175,25,0.0.0.0,10.139.171.151,1,0
2013-11-12 15:12:22.069,137,13.7,52.16999,4.457696,0,0.3045092,352.1118,9.47794,10,1384265415,-0.1372528,-0.7925873,-0.5821228,1.200443,-26.76849,-38.59792,329.3304,328.9867,25,0.0.0.0,10.139.171.151,1,0
2013-11-12 15:12:22.265,138,13.8,52.16999,4.457696,0,0.3045092,352.1118,9.47794,10,1384265415,-0.1774902,-0.8229828,-0.5734253,0.7049065,-26.49459,-38.76954,329.38,329.0363,25,0.0.0.0,10.139.171.151,1,0
2013-11-12 15:12:22.440,139,13.9,52.16999,4.457696,0,0.3045092,352.1118,9.47794,10,1384265415,-0.1076508,-0.8849182,-0.5690918,1.200443,-26.76849,-38.71233,329.6324,329.2887,25,0.0.0.0,10.139.171.151,1,0
2013-11-12 15:12:22.701,140,14,52.16999,4.457696,0,0.3045092,352.1118,9.47794,10,1384265415,-0.1712646,-0.7419739,-0.462616,1.035267,-27.48063,-38.42628,329.6842,329.3405,25,0.0.0.0,10.139.171.151,1,0
2013-11-12 15:12:23.328,141,14.1,52.16999,4.457696,0,0.3045092,352.1118,9.47794,10,1384265415,-0.1784668,-0.9480743,-0.5760193,1.5308,-26.54938,-38.14024,330.835,330.4912,25,0.0.0.0,10.139.171.151,1,0
2013-11-12 15:12:23.770,142,14.2,52.16999,4.457696,0,0.3045092,352.1118,9.47794,10,1384265415,-0.1162415,-0.846405,-0.5439148,0.9802055,-26.33025,-38.02581,331.5579,331.2142,25,0.0.0.0,10.139.171.151,1,0
2013-11-12 15:12:24.187,143,14.3,52.17001,4.457696,0,0.3886772,348.4892,9.376455,5,1384265416,-0.08789062,-0.8344421,-0.56427,-1.717705,-27.26151,-37.16766,333.7178,333.3741,25,0.0.0.0,10.139.171.151,1,0
2013-11-12 15:12:24.396,144,14.4,52.17001,4.457696,0,0.3886772,348.4892,9.376455,5,1384265416,-0.1140137,-0.9675598,-0.6448517,-1.44241,-27.09717,-37.33929,338.3798,338.0361,25,0.0.0.0,10.139.171.151,1,0
2013-11-12 15:12:24.563,145,14.5,52.17001,4.457696,0,0.3886772,348.4892,9.376455,5,1384265416,-0.08459473,-0.818573,-0.5312042,-1.552528,-26.2207,-36.42393,339.9087,339.5649,25,0.0.0.0,10.139.171.151,1,0
2013-11-12 15:12:24.767,146,14.6,52.17001,4.457696,0,0.3886772,348.4892,9.376455,5,1384265416,-0.06912231,-0.8221588,-0.5691223,-2.818893,-26.82327,-36.48113,340.7962,340.4525,25,0.0.0.0,10.139.171.151,1,0
2013-11-12 15:12:25.064,147,14.7,52.17001,4.457696,0,0.3886772,348.4892,9.376455,5,1384265416,-0.0460968,-0.7454987,-0.5779877,-3.534668,-28.19276,-35.05087,340.9073,340.5636,25,0.0.0.0,10.139.171.151,1,0
2013-11-12 15:12:25.280,148,14.8,52.17001,4.457696,0,0.3886772,348.4892,9.376455,5,1384265416,-0.1081543,-0.7718353,-0.5995789,-3.644787,-28.0832,-35.05087,341.2321,340.8884,25,0.0.0.0,10.139.171.151,1,0
2013-11-12 15:12:25.407,149,14.9,52.17001,4.457696,0,0.3886772,348.4892,9.376455,5,1384265416,-0.1131287,-0.8049316,-0.5975647,-4.856094,-28.41188,-35.27972,341.4862,341.1425,25,0.0.0.0,10.139.171.151,1,0
2013-11-12 15:12:25.577,150,15,52.17001,4.457696,0,0.3886772,348.4892,9.376455,5,1384265416,-0.1344452,-0.8299103,-0.5966034,-4.415619,-27.53541,-35.39414,341.6708,341.3271,25,0.0.0.0,10.139.171.151,1,0
2013-11-12 15:12:25.710,151,15.1,52.17001,4.457702,0,0.4549657,2.347758,9.284755,5,1384265417,-0.1660614,-0.824173,-0.572403,-5.015541,-27.44489,-34.21281,343.2466,342.9029,25,0.0.0.0,10.139.171.151,1,0
2013-11-12 15:12:26.092,152,15.2,52.17001,4.457702,0,0.4549657,2.347758,9.284755,5,1384265417,-0.195343,-0.8286896,-0.5948944,-4.905422,-26.78756,-34.89919,345.3533,345.0096,25,0.0.0.0,10.139.171.151,1,0
2013-11-12 15:12:26.268,153,15.3,52.17001,4.457702,0,0.4549657,2.347758,9.284755,5,1384265417,-0.1593475,-0.7469025,-0.5492249,-4.905422,-27.22578,-34.09841,339.8337,339.49,25,0.0.0.0,10.139.171.151,1,0
2013-11-12 15:12:26.374,154,15.4,52.17001,4.457702,0,0.4549657,2.347758,9.284755,5,1384265417,-0.1593475,-0.7469025,-0.5492249,-5.786377,-25.692,-33.64082,339.9442,339.6005,25,0.0.0.0,10.139.171.151,1,0
2013-11-12 15:12:26.562,155,15.5,52.17001,4.457702,0,0.4549657,2.347758,9.284755,5,1384265417,-0.1525879,-0.7238922,-0.4772034,-4.079529,-25.52767,-33.35484,335.3159,334.9722,25,0.0.0.0,10.139.171.151,1,0
2013-11-12 15:12:26.672,156,15.6,52.17001,4.457702,0,0.4549657,2.347758,9.284755,5,1384265417,-0.1293945,-0.8931885,-0.5574799,-3.033398,-25.25378,-33.75523,332.916,332.5723,25,0.0.0.0,10.139.171.151,1,0
2013-11-12 15:12:26.804,157,15.7,52.17001,4.457702,0,0.4549657,2.347758,9.284755,5,1384265417,-0.194046,-0.8508759,-0.5617371,-2.207504,-25.74678,-34.61321,330.5561,330.2124,25,0.0.0.0,10.139.171.151,1,0
2013-11-12 15:12:27.064,158,15.8,52.17001,4.457702,0,0.4549657,2.347758,9.284755,5,1384265417,-0.1360474,-0.8136749,-0.5343475,-1.32655,-26.07545,-35.75718,328.6275,328.2838,25,0.0.0.0,10.139.171.151,1,0
2013-11-12 15:12:27.152,159,15.9,52.17003,4.457711,0,0.5155063,16.67443,9.172915,5,1384265418,-0.1772614,-0.8440399,-0.5237122,-0.2253571,-26.29456,-36.44355,326.3871,326.0434,25,0.0.0.0,10.139.171.151,1,0
2013-11-12 15:12:27.416,160,16,52.17003,4.457711,0,0.5155063,16.67443,9.172915,5,1384265418,-0.1841278,-0.8322754,-0.5335083,-0.06018066,-27.33534,-36.38636,324.7334,324.3897,25,0.0.0.0,10.139.171.151,1,0
2013-11-12 15:12:27.550,161,16.1,52.17003,4.457711,0,0.5155063,16.67443,9.172915,5,1384265418,-0.1660614,-0.9399719,-0.6256561,0.6005363,-27.44489,-36.50076,327.5475,327.2038,25,0.0.0.0,10.139.171.151,1,0
2013-11-12 15:12:27.695,162,16.2,52.17003,4.457711,0,0.5155063,16.67443,9.172915,5,1384265418,-0.1965027,-0.6769409,-0.4609528,1.352287,-28.11736,-37.46987,325.7403,325.3965,25,0.0.0.0,10.139.171.151,1,0
2013-11-12 15:12:27.997,163,16.3,52.17003,4.457711,0,0.5155063,16.67443,9.172915,5,1384265418,-0.1808014,-0.7641144,-0.5550995,1.407345,-27.62436,-37.98463,326.7445,326.4008,25,0.0.0.0,10.139.171.151,1,0
2013-11-12 15:12:28.134,164,16.4,52.17003,4.457711,0,0.5155063,16.67443,9.172915,5,1384265418,-0.1716614,-1.059647,-0.6876678,1.297222,-27.2957,-37.98463,325.4491,325.1054,25,0.0.0.0,10.139.171.151,1,0
2013-11-12 15:12:28.285,165,16.5,52.17003,4.457711,0,0.5155063,16.67443,9.172915,5,1384265418,-0.1776276,-0.634079,-0.4337158,0.1960068,-26.85748,-36.84072,333.2477,332.904,25,0.0.0.0,10.139.171.151,1,0
2013-11-12 15:12:28.432,166,16.6,52.17003,4.457711,0,0.5155063,16.67443,9.172915,5,1384265418,-0.2376251,-1.010086,-0.647171,0.691555,-27.35048,-36.78353,332.1443,331.8006,25,0.0.0.0,10.139.171.151,1,0
2013-11-12 15:12:28.574,167,16.7,52.17003,4.457711,0,0.5155063,16.67443,9.172915,5,1384265418,-0.2852325,-0.6999359,-0.4953156,0.8016777,-28.33647,-35.41087,327.8709,327.5272,25,0.0.0.0,10.139.171.151,1,0
2013-11-12 15:12:28.703,168,16.8,52.17003,4.457711,0,0.5155063,16.67443,9.172915,5,1384265418,-0.1994171,-0.8962555,-0.6200409,0.5814323,-28.77468,-34.95332,326.377,326.0333,25,0.0.0.0,10.139.171.151,1,0
2013-11-12 15:12:28.824,169,16.9,52.17004,4.457716,0,0.5706574,8.202441,9.060781,5,1384265419,-0.2456207,-0.751358,-0.5836334,0.4162521,-28.17213,-34.55294,328.0654,327.7217,25,0.0.0.0,10.139.171.151,1,0
2013-11-12 15:12:29.070,170,17,52.17004,4.457716,0,0.5706574,8.202441,9.060781,5,1384265419,-0.1664429,-0.8028717,-0.5968018,0.03082275,-28.11736,-33.92381,328.0478,327.7041,25,0.0.0.0,10.139.171.151,1,0
2013-11-12 15:12:29.167,171,17.1,52.17004,4.457716,0,0.5706574,8.202441,9.060781,5,1384265419,-0.1664429,-0.8028717,-0.5968018,0.4713097,-28.33647,-30.83529,318.7793,318.4356,25,0.0.0.0,10.139.171.151,1,0
2013-11-12 15:12:29.291,172,17.2,52.17004,4.457716,0,0.5706574,8.202441,9.060781,5,1384265419,-0.1223602,-0.7427216,-0.5471191,-0.1894226,-28.11736,-30.83529,319.5113,319.1676,25,0.0.0.0,10.139.171.151,1,0
2013-11-12 15:12:29.415,173,17.3,52.17004,4.457716,0,0.5706574,8.202441,9.060781,5,1384265419,-0.1718445,-0.8061523,-0.6454926,-0.5748444,-27.73392,-30.32053,320.4824,320.1387,25,0.0.0.0,10.139.171.151,1,0
2013-11-12 15:12:29.560,174,17.4,52.17004,4.457716,0,0.5706574,8.202441,9.060781,5,1384265419,-0.06149292,-0.7121429,-0.4885559,-2.061493,-27.35048,-30.14896,320.2356,319.8918,25,0.0.0.0,10.139.171.151,1,0
