time,timestamp,recordtime,lat,long,alt,speed,course,verticalAccuracy,horizontalAccuracy,locTimeStamp,accelerationX,accelerationY,accelerationZ,HeadingX,HeadingY,HeadingZ,TrueHeading,MagneticHeading,HeadingAccuracy,en0,pdp_ip0,DeviceOrientation,Event
2013-11-14 08:47:24.366,1,0.03,52.37593,4.918261,9.612423,0,-1,11.21892,10,1384415208,-0.170105,0.04788208,-0.8677521,16.16362,-6.948348,-95.77148,331.1325,330.6516,25,0.0.0.0,10.137.250.93,1,0
2013-11-14 08:47:24.463,2,0.06,52.37593,4.918261,9.612423,0,-1,11.21892,10,1384415208,-0.170105,0.04788208,-0.8677521,14.9519,-7.27741,-96.23085,331.1381,330.6572,25,0.0.0.0,10.137.250.93,1,0
2013-11-14 08:47:24.555,3,0.09,52.37593,4.918261,9.612423,0,-1,11.21892,10,1384415208,-0.4527435,-0.1031494,-0.90448,12.74877,-6.61928,-96.80507,332.1308,331.6499,25,0.0.0.0,10.137.250.93,1,0
2013-11-14 08:47:24.689,4,0.12,52.37593,4.918261,9.612423,0,-1,11.21892,10,1384415208,-0.6752625,-0.1036377,-0.9043732,10.54565,-5.961156,-96.69023,333.2505,332.7696,25,0.0.0.0,10.137.250.93,1,0
2013-11-14 08:47:24.899,5,0.15,52.37593,4.918261,9.612423,0,-1,11.21892,10,1384415208,-0.7628021,0.154007,-0.700943,13.24447,-6.235378,-96.51796,332.7154,332.2345,25,0.0.0.0,10.137.250.93,1,0
2013-11-14 08:47:25.025,6,0.18,52.37593,4.918261,9.612423,0,-1,11.21892,10,1384415208,-0.509201,0.4384155,-0.7902832,11.31674,-7.277407,-96.91992,332.7179,332.237,25,0.0.0.0,10.137.250.93,1,0
2013-11-14 08:47:25.146,7,0.21,52.37593,4.918261,9.612423,0,-1,10.88598,10,1384415213,-0.3351593,0.3725739,-1.097061,10.71088,-7.33225,-96.40312,332.7242,332.2433,25,0.0.0.0,10.137.250.93,1,0
2013-11-14 08:47:25.213,8,0.24,52.37593,4.918261,9.612423,0,-1,10.88598,10,1384415213,-0.3351593,0.3725739,-1.097061,11.31674,-6.72897,-96.23085,332.7462,332.2653,25,0.0.0.0,10.137.250.93,1,0
2013-11-14 08:47:25.368,9,0.27,52.37593,4.918261,9.612423,0,-1,10.88598,10,1384415213,-0.6169434,0.2626495,-0.9051056,12.30815,-6.290221,-96.46054,332.7568,332.2759,25,0.0.0.0,10.137.250.93,1,0
2013-11-14 08:47:25.474,10,0.3,52.37593,4.918261,9.612423,0,-1,10.88598,10,1384415213,-0.7973633,0.4354553,-0.5606689,12.91401,-6.125692,-96.05859,332.7446,332.2637,25,0.0.0.0,10.137.250.93,1,0
2013-11-14 08:47:25.561,11,0.33,52.37593,4.918261,9.612423,0,-1,10.88598,10,1384415213,-0.7061157,0.2853546,-0.6407318,13.46479,-6.345068,-95.36952,332.719,332.2381,25,0.0.0.0,10.137.250.93,1,0
2013-11-14 08:47:25.675,12,0.36,52.37593,4.918261,9.612423,0,-1,10.88598,10,1384415213,-0.5825806,0.2542267,-0.6771545,12.36322,-7.332253,-95.13985,332.6924,332.2115,25,0.0.0.0,10.137.250.93,1,0
2013-11-14 08:47:25.918,13,0.39,52.37593,4.918261,9.612423,0,-1,10.88598,10,1384415213,-0.5155029,0.2210999,-0.6280975,12.08783,-6.72897,-96.23085,332.6881,332.2072,25,0.0.0.0,10.137.250.93,1,0
2013-11-14 08:47:26.013,14,0.42,52.37593,4.918261,9.612423,0,-1,10.88598,10,1384415213,-0.5155029,0.2210999,-0.6280975,12.69369,-6.674126,-96.63281,332.6872,332.2063,25,0.0.0.0,10.137.250.93,1,0
2013-11-14 08:47:26.120,15,0.45,52.37593,4.918261,9.612423,0,-1,10.90094,10,1384415214,-0.5277405,0.207077,-0.5843201,12.85893,-6.290218,-96.69023,332.6808,332.1999,25,0.0.0.0,10.137.250.93,1,0
2013-11-14 08:47:26.245,16,0.48,52.37593,4.918261,9.612423,0,-1,10.90094,10,1384415214,-0.6106415,0.1893311,-0.6731873,13.51986,-6.948345,-95.88632,332.6562,332.1753,25,0.0.0.0,10.137.250.93,1,0
2013-11-14 08:47:26.340,17,0.51,52.37593,4.918261,9.612423,0,-1,10.90094,10,1384415214,-0.5456085,0.2359924,-0.7762604,12.85893,-6.290225,-95.3121,332.6241,332.1432,25,0.0.0.0,10.137.250.93,1,0
2013-11-14 08:47:26.465,18,0.54,52.37593,4.918261,9.612423,0,-1,10.90094,10,1384415214,-0.4643402,0.187851,-0.8429718,12.47338,-6.125695,-95.13985,332.624,332.1431,25,0.0.0.0,10.137.250.93,1,0
2013-11-14 08:47:26.552,19,0.57,52.37593,4.918261,9.612423,0,-1,10.90094,10,1384415214,-0.503952,0.163681,-0.79245,13.46479,-6.56444,-96.05859,332.5963,332.1154,25,0.0.0.0,10.137.250.93,1,0
2013-11-14 08:47:26.683,20,0.6,52.37593,4.918261,9.612423,0,-1,10.90094,10,1384415214,-0.556778,0.1461029,-0.7984619,13.24447,-7.771004,-96.05859,332.5708,332.0899,25,0.0.0.0,10.137.250.93,1,0
2013-11-14 08:47:26.842,21,0.63,52.37593,4.918261,9.612423,0,-1,10.90094,10,1384415214,-0.5892181,0.2552948,-0.9001312,14.84174,-6.838659,-95.42696,332.513,332.0321,25,0.0.0.0,10.137.250.93,1,0
2013-11-14 08:47:27.012,22,0.66,52.37593,4.918261,9.612423,0,-1,10.90094,10,1384415214,-0.7041626,0.2610321,-0.9492645,15.4476,-7.551629,-95.02499,332.4571,331.9762,25,0.0.0.0,10.137.250.93,1,0
2013-11-14 08:47:27.113,23,0.69,52.37593,4.918261,9.612423,0,-1,10.51871,10,1384415214,-0.6292419,0.2038879,-0.836853,15.99838,-7.441939,-94.91016,332.3912,331.9103,25,0.0.0.0,10.137.250.93,1,0
2013-11-14 08:47:27.230,24,0.72,52.37593,4.918261,9.612423,0,-1,10.51871,10,1384415214,-0.6292419,0.2038879,-0.836853,14.9519,-7.496783,-95.08241,332.3394,331.8586,25,0.0.0.0,10.137.250.93,1,0
2013-11-14 08:47:27.318,25,0.75,52.37593,4.918261,9.612423,0,-1,10.51871,10,1384415214,-0.5869141,0.1199188,-0.7352295,14.51127,-7.496783,-95.42696,332.3147,331.8338,25,0.0.0.0,10.137.250.93,1,0
2013-11-14 08:47:27.411,26,0.78,52.37593,4.918261,9.612423,0,-1,10.51871,10,1384415214,-0.5869141,0.1199188,-0.7352295,15.06205,-7.387093,-94.50819,332.2729,331.792,25,0.0.0.0,10.137.250.93,1,0
2013-11-14 08:47:27.513,27,0.81,52.37593,4.918261,9.612423,0,-1,10.51871,10,1384415214,-0.70784,0.1309204,-0.7561493,15.61283,-7.167717,-94.85274,332.223,331.7421,25,0.0.0.0,10.137.250.93,1,0
2013-11-14 08:47:27.620,28,0.84,52.37593,4.918261,9.612423,0,-1,10.51871,10,1384415214,-0.7772827,0.1957703,-0.6534119,15.61283,-7.606472,-94.16367,332.1699,331.689,25,0.0.0.0,10.137.250.93,1,0
2013-11-14 08:47:27.744,29,0.87,52.37593,4.918261,9.612423,0,-1,10.51871,10,1384415214,-0.5499878,0.09996033,-0.8070679,15.50268,-7.496783,-93.93398,332.1169,331.636,25,0.0.0.0,10.137.250.93,1,0
2013-11-14 08:47:27.939,30,0.9,52.37593,4.918261,9.612423,0,-1,10.51871,10,1384415214,-0.5917969,0.1016083,-0.8247528,15.9433,-8.264595,-96.11601,332.0265,331.5456,25,0.0.0.0,10.137.250.93,1,0
2013-11-14 08:47:28.058,31,0.93,52.37593,4.918261,9.612423,0,-1,10.51871,10,1384415214,-0.5917969,0.1016083,-0.8247528,15.99838,-7.441939,-95.59921,331.9976,331.5167,25,0.0.0.0,10.137.250.93,1,0
2013-11-14 08:47:28.162,32,0.96,52.37593,4.918261,9.612423,0,-1,10.51871,10,1384415214,-0.7951355,0.1443176,-0.6533508,15.33744,-7.661315,-93.76172,330.7785,330.2976,25,0.0.0.0,10.137.250.93,1,0
2013-11-14 08:47:28.277,33,0.9899999,52.37593,4.918261,9.612423,0,-1,10.51871,10,1384415214,-0.8188171,0.1828918,-0.6545105,14.89682,-7.441939,-95.71407,330.7912,330.3103,25,0.0.0.0,10.137.250.93,1,0
2013-11-14 08:47:28.453,34,1.02,52.37593,4.918261,9.612423,0,-1,10.51871,10,1384415214,-0.7154388,0.1188965,-0.6987305,13.74018,-7.167721,-96.00117,331.5379,331.057,25,0.0.0.0,10.137.250.93,1,0
2013-11-14 08:47:28.554,35,1.05,52.37593,4.918261,9.612423,0,-1,10.51871,10,1384415214,-0.6361237,0.07832336,-0.5775909,14.07064,-6.509597,-95.77148,331.5493,331.0684,25,0.0.0.0,10.137.250.93,1,0
2013-11-14 08:47:28.679,36,1.08,52.37593,4.918261,9.612423,0,-1,10.09469,10,1384415215,-0.7665558,0.1287079,-0.5879669,14.1808,-6.619283,-95.54179,331.5531,331.0722,25,0.0.0.0,10.137.250.93,1,0
2013-11-14 08:47:28.884,37,1.11,52.37593,4.918261,9.612423,0,-1,10.09469,10,1384415215,-0.792572,0.1579132,-0.6582336,14.12572,-6.454751,-95.48438,331.5583,331.0774,25,0.0.0.0,10.137.250.93,1,0
2013-11-14 08:47:28.979,38,1.14,52.37593,4.918261,9.612423,0,-1,10.09469,10,1384415215,-0.6170502,0.1059113,-0.7284851,13.90541,-6.345068,-96.17343,332.0479,331.567,25,0.0.0.0,10.137.250.93,1,0
2013-11-14 08:47:29.140,39,1.17,52.37593,4.918261,9.612423,0,-1,10.09469,10,1384415215,-0.7968597,0.07859802,-0.5762787,14.40112,-6.509597,-95.77148,331.8803,331.3994,25,0.0.0.0,10.137.250.93,1,0
2013-11-14 08:47:29.275,40,1.2,52.37593,4.918261,9.612423,0,-1,10.09469,10,1384415215,-0.7968597,0.07859802,-0.5762787,14.89682,-6.783816,-94.68047,331.335,330.8541,25,0.0.0.0,10.137.250.93,1,0
2013-11-14 08:47:29.398,41,1.23,52.37593,4.918261,9.612423,0,-1,10.09469,10,1384415215,-0.7927856,0.1032257,-0.545166,14.23588,-7.003191,-93.87656,331.6312,331.1503,25,0.0.0.0,10.137.250.93,1,0
2013-11-14 08:47:29.474,42,1.26,52.37593,4.918261,9.612423,0,-1,10.09469,10,1384415215,-0.7927856,0.1032257,-0.545166,14.73158,-7.27741,-94.73788,331.7212,331.2403,25,0.0.0.0,10.137.250.93,1,0
2013-11-14 08:47:29.578,43,1.29,52.37593,4.918261,9.612423,0,-1,10.09469,10,1384415215,-0.7720795,0.0827179,-0.6073303,15.55775,-6.893502,-95.25468,331.588,331.1071,25,0.0.0.0,10.137.250.93,1,0
2013-11-14 08:47:29.737,44,1.32,52.37593,4.918261,9.612423,0,-1,10.09469,10,1384415215,-0.8101807,0.08824158,-0.6201477,15.4476,-7.222564,-94.33594,331.5614,331.0805,25,0.0.0.0,10.137.250.93,1,0
2013-11-14 08:47:30.031,45,1.35,52.37593,4.918261,9.612423,0,-1,10.09469,10,1384415215,-0.7856598,0.08717346,-0.5752869,16.16362,-7.27741,-94.50819,331.361,330.8801,25,0.0.0.0,10.137.250.93,1,0
2013-11-14 08:47:30.146,46,1.38,52.37593,4.918261,9.612423,0,-1,10.09469,10,1384415215,-0.7915344,0.125,-0.5101776,16.54916,-7.222564,-93.99141,331.2152,330.7343,25,0.0.0.0,10.137.250.93,1,0
2013-11-14 08:47:30.346,47,1.41,52.37593,4.918261,9.612423,0,-1,10.09469,10,1384415215,-0.8474426,0.1153412,-0.5123138,16.21869,-8.319439,-92.61328,331.0676,330.5867,25,0.0.0.0,10.137.250.93,1,0
2013-11-14 08:47:30.524,48,1.44,52.37593,4.918261,9.612423,0,-1,10.09469,10,1384415215,-0.8474426,0.1153412,-0.5123138,16.32885,-8.538815,-91.69453,331.4674,330.9865,25,0.0.0.0,10.137.250.93,1,0
2013-11-14 08:47:30.609,49,1.47,52.37593,4.918261,9.612423,0,-1,10.09469,10,1384415215,-0.8058777,0.09085083,-0.5373993,15.06205,-8.593657,-90.48866,331.7234,331.2425,25,0.0.0.0,10.137.250.93,1,0
2013-11-14 08:47:30.759,50,1.5,52.37593,4.918261,9.612423,0,-1,10.09469,10,1384415215,-0.8009186,0.08384705,-0.5461273,15.33744,-7.880691,-90.77577,331.7323,331.2514,25,0.0.0.0,10.137.250.93,1,0
2013-11-14 08:47:30.942,51,1.53,52.37593,4.918261,9.612423,0,-1,9.857279,10,1384415216,-0.8516693,0.1041718,-0.571701,15.39252,-8.483971,-90.14413,331.7229,331.242,25,0.0.0.0,10.137.250.93,1,0
2013-11-14 08:47:31.062,52,1.56,52.37593,4.918261,9.612423,0,-1,9.857279,10,1384415216,-0.8256989,0.1264496,-0.5365906,15.88823,-7.771001,-91.80937,331.7122,331.2314,25,0.0.0.0,10.137.250.93,1,0
2013-11-14 08:47:31.178,53,1.59,52.37593,4.918261,9.612423,0,-1,9.857279,10,1384415216,-0.811554,0.08531189,-0.5140381,16.65932,-6.674129,-94.56563,331.6848,331.2039,25,0.0.0.0,10.137.250.93,1,0
2013-11-14 08:47:31.287,54,1.62,52.37593,4.918261,9.612423,0,-1,9.857279,10,1384415216,-0.8563538,0.08451843,-0.484024,16.49408,-7.387096,-94.50819,331.6531,331.1722,25,0.0.0.0,10.137.250.93,1,0
2013-11-14 08:47:31.395,55,1.65,52.37593,4.918261,9.612423,0,-1,9.857279,10,1384415216,-0.8433838,0.09521484,-0.4625702,15.66791,-7.551626,-94.45078,331.6425,331.1616,25,0.0.0.0,10.137.250.93,1,0
2013-11-14 08:47:31.503,56,1.68,52.37593,4.918261,9.612423,0,-1,9.857279,10,1384415216,-0.8174744,0.09146118,-0.4955902,14.45619,-7.990377,-94.10625,331.6436,331.1628,25,0.0.0.0,10.137.250.93,1,0
2013-11-14 08:47:31.610,57,1.71,52.37593,4.918261,9.612423,0,-1,9.857279,10,1384415216,-0.8174744,0.09146118,-0.4955902,14.01557,-8.100066,-93.30234,332.0364,331.5555,25,0.0.0.0,10.137.250.93,1,0
2013-11-14 08:47:31.711,58,1.74,52.37593,4.918261,9.612423,0,-1,9.857279,10,1384415216,-0.8665771,0.09918213,-0.614563,13.13432,-6.454751,-92.95781,332.4321,331.9512,25,0.0.0.0,10.137.250.93,1,0
2013-11-14 08:47:31.905,59,1.77,52.37593,4.918261,9.612423,0,-1,9.857279,10,1384415216,-0.8665771,0.09918213,-0.614563,11.9226,-6.454751,-93.64687,333.0735,332.5926,25,0.0.0.0,10.137.250.93,1,0
2013-11-14 08:47:32.050,60,1.8,52.37593,4.918261,9.612423,0,-1,9.857279,10,1384415216,-0.8609772,0.08525085,-0.5220032,9.774551,-6.180532,-93.81914,334.4051,333.9242,25,0.0.0.0,10.137.250.93,1,0
2013-11-14 08:47:32.145,61,1.83,52.37593,4.918261,9.612423,0,-1,9.857279,10,1384415216,-0.8296509,0.06141663,-0.6026306,9.00346,-5.303033,-94.16367,335.0002,334.5193,25,0.0.0.0,10.137.250.93,1,0
2013-11-14 08:47:32.257,62,1.86,52.37593,4.918261,9.612423,0,-1,9.857279,10,1384415216,-0.8192291,0.09498596,-0.7604065,9.278851,-5.577251,-93.53203,334.4147,333.9338,25,0.0.0.0,10.137.250.93,1,0
2013-11-14 08:47:32.359,63,1.89,52.37593,4.918261,0,0,-1,9.5,5,1384415217,-0.8620453,0.1060791,-0.5980072,8.783146,-5.303033,-93.58945,333.9386,333.4577,25,0.0.0.0,10.137.250.93,1,0
2013-11-14 08:47:32.480,64,1.92,52.37593,4.918261,0,0,-1,9.5,5,1384415217,-0.8307343,0.08784485,-0.4907532,7.240959,-3.767412,-95.3121,335.5218,335.0409,25,0.0.0.0,10.137.250.93,1,0
2013-11-14 08:47:32.602,65,1.95,52.37593,4.918261,0,0,-1,9.5,5,1384415217,-0.7619934,0.05801392,-0.6140442,6.855412,-4.041628,-95.02499,336.1903,335.7094,25,0.0.0.0,10.137.250.93,1,0
2013-11-14 08:47:32.695,66,1.98,52.37593,4.918261,0,0,-1,9.5,5,1384415217,-0.8187561,0.03424072,-0.5587158,7.240959,-4.864282,-95.3121,335.8897,335.4088,25,0.0.0.0,10.137.250.93,1,0
2013-11-14 08:47:32.949,67,2.01,52.37593,4.918261,0,0,-1,9.5,5,1384415217,-0.845459,0.02177429,-0.4818573,7.185879,-4.699752,-95.8289,335.7736,335.2927,25,0.0.0.0,10.137.250.93,1,0
2013-11-14 08:47:33.058,68,2.04,52.37593,4.918261,0,0,-1,9.5,5,1384415217,-0.9086151,0.09571838,-0.5494995,7.130802,-5.08366,-95.54179,335.7594,335.2785,25,0.0.0.0,10.137.250.93,1,0
2013-11-14 08:47:33.176,69,2.07,52.37593,4.918261,0,0,-1,9.5,5,1384415217,-0.8471069,0.06619263,-0.5452881,7.571426,-5.083657,-93.58945,335.6647,335.1838,25,0.0.0.0,10.137.250.93,3,0
2013-11-14 08:47:33.331,70,2.1,52.37593,4.918261,0,0,-1,9.5,5,1384415217,-0.8820953,0.05151367,-0.5161743,7.681583,-5.193343,-94.39336,335.6174,335.1365,25,0.0.0.0,10.137.250.93,3,0
2013-11-14 08:47:33.423,71,2.13,52.37593,4.918261,0,0,-1,9.5,5,1384415217,-0.9114838,0.08175659,-0.4783936,7.956974,-5.248189,-93.1875,335.569,335.0881,25,0.0.0.0,10.137.250.93,3,0
2013-11-14 08:47:33.526,72,2.16,52.37593,4.918261,0,0,-1,9.5,5,1384415217,-0.7861023,0.0003356934,-0.6723938,8.672989,-5.741784,-93.81914,335.5356,335.0547,25,0.0.0.0,10.137.250.93,3,0
2013-11-14 08:47:33.653,73,2.19,52.37593,4.918261,0,0,-1,9.5,5,1384415217,-0.7861023,0.0003356934,-0.6723938,8.287441,-5.1385,-94.45078,335.4973,335.0164,25,0.0.0.0,10.137.250.93,3,0
2013-11-14 08:47:33.738,74,2.22,52.37593,4.918261,0,0,-1,9.5,5,1384415218,-0.9865417,0.003646851,-0.3139343,8.783146,-5.193346,-93.81914,335.4299,334.949,25,0.0.0.0,10.137.250.93,3,0
2013-11-14 08:47:34.248,75,2.25,52.37593,4.918261,0,0,-1,9.5,5,1384415218,-0.8498535,0.007110596,-0.2773895,9.774551,-6.399908,-93.35976,335.3323,334.8514,25,0.0.0.0,10.137.250.93,3,0
2013-11-14 08:47:34.707,76,2.28,52.37593,4.918261,0,0,-1,9.5,5,1384415218,-0.8069153,0.01535034,-0.3512421,10.32533,-5.741787,-93.58945,335.0851,334.6042,25,0.0.0.0,10.137.250.93,3,0
2013-11-14 08:47:35.296,77,2.31,52.37593,4.918261,0,0,-1,9.5,5,1384415218,-0.9040833,0.06988525,-0.5864258,10.87611,-6.619283,-93.47461,334.9389,334.458,25,0.0.0.0,10.137.250.93,3,0
2013-11-14 08:47:35.526,78,2.34,52.37593,4.918261,0,0,-1,9.5,5,1384415218,-0.8994751,0.01963806,-0.5122833,11.26166,-5.906313,-92.61328,334.8929,334.412,25,0.0.0.0,10.137.250.93,3,0
2013-11-14 08:47:35.653,79,2.37,52.37593,4.918261,0,0,-1,9.5,5,1384415218,-0.7986603,-0.00567627,-0.3900909,11.1515,-5.248189,-93.64687,334.8206,334.3397,25,0.0.0.0,10.137.250.93,3,0
2013-11-14 08:47:35.815,80,2.4,52.37593,4.918261,0,0,-1,10.53474,10,1384415219,-0.7370758,0.01225281,-0.4307861,10.82104,-5.248189,-93.64687,334.7166,334.2357,25,0.0.0.0,10.137.250.93,3,0
2013-11-14 08:47:35.955,81,2.43,52.37593,4.918261,0,0,-1,10.53474,10,1384415219,-0.8044739,0.02922058,-0.5401459,10.27026,-5.357879,-94.10625,334.672,334.1911,25,0.0.0.0,10.137.250.93,3,0
2013-11-14 08:47:36.072,82,2.46,52.37593,4.918261,0,0,-1,10.53474,10,1384415219,-0.8044739,0.02922058,-0.5401459,8.177288,-5.686941,-93.99141,334.6618,334.1809,25,0.0.0.0,10.137.250.93,3,0
2013-11-14 08:47:36.182,83,2.49,52.37593,4.918261,0,0,-1,10.53474,10,1384415219,-0.7958679,-0.01025391,-0.567276,9.22377,-4.644906,-94.85274,334.6603,334.1794,25,0.0.0.0,10.137.250.93,3,0
2013-11-14 08:47:36.282,84,2.52,52.37593,4.918261,0,0,-1,10.53474,10,1384415219,-0.7958679,-0.01025391,-0.567276,8.838223,-5.357876,-95.48438,334.6542,334.1733,25,0.0.0.0,10.137.250.93,3,0
2013-11-14 08:47:36.382,85,2.55,52.37593,4.918261,0,0,-1,10.53474,10,1384415219,-0.7225494,0.004943848,-0.4540863,9.113613,-5.303036,-96.3457,334.6416,334.1607,25,0.0.0.0,10.137.250.93,3,0
2013-11-14 08:47:36.488,86,2.58,52.37593,4.918261,0,0,-1,10.53474,10,1384415219,-0.6420441,0.01712036,-0.4401703,8.94838,-4.699752,-97.78125,334.6346,334.1537,25,0.0.0.0,10.137.250.93,3,0
2013-11-14 08:47:36.588,87,2.61,52.37593,4.918261,0,0,-1,10.53474,10,1384415219,-0.6311798,0.008682251,-0.4858856,9.444084,-5.193343,-97.26445,334.6253,334.1444,25,0.0.0.0,10.137.250.93,3,0
2013-11-14 08:47:36.670,88,2.64,52.37593,4.918261,0,0,-1,10.53474,10,1384415219,-0.7078094,0.03649902,-0.7140656,9.22377,-5.522405,-96.80507,334.6119,334.131,25,0.0.0.0,10.137.250.93,3,0
2013-11-14 08:47:36.896,89,2.67,52.37593,4.918261,0,0,-1,10.53474,10,1384415219,-0.7631226,0.09115601,-0.7358398,8.94838,-5.467565,-97.43672,334.5974,334.1165,25,0.0.0.0,10.137.250.93,3,0
2013-11-14 08:47:37.007,90,2.7,52.37593,4.918261,0,0,-1,10.53474,10,1384415219,-0.9091339,0.1416168,-0.6644897,8.94838,-5.467562,-98.12578,334.5942,334.1133,25,0.0.0.0,10.137.250.93,3,0
2013-11-14 08:47:37.109,91,2.73,52.37593,4.918261,0,0,-1,10.53474,10,1384415219,-0.7021942,0.07122803,-0.8611298,9.609318,-5.796627,-97.55156,334.5825,334.1016,25,0.0.0.0,10.137.250.93,3,0
2013-11-14 08:47:37.225,92,2.76,52.37593,4.918261,0,0,-1,10.53474,10,1384415219,0.3787079,-0.2502289,-1.727402,9.994865,-5.632094,-97.60898,334.5594,334.0785,25,0.0.0.0,10.137.250.93,3,0
2013-11-14 08:47:37.334,93,2.79,52.37593,4.918261,0,0,-1,9.5,5,1384415220,0.3787079,-0.2502289,-1.727402,9.22377,-5.19334,-97.60898,334.5519,334.071,25,0.0.0.0,10.137.250.93,3,0
2013-11-14 08:47:37.413,94,2.82,52.37593,4.918261,0,0,-1,9.5,5,1384415220,0.06288147,-0.7093506,-1.099503,8.507755,-5.248186,-96.97734,334.5511,334.0702,25,0.0.0.0,10.137.250.93,3,0
2013-11-14 08:47:37.518,95,2.85,52.37593,4.918261,0,0,-1,9.5,5,1384415220,-0.7320557,-0.3348541,-0.4425201,8.452679,-5.522408,-97.72383,334.5573,334.0764,25,0.0.0.0,10.137.250.93,3,0
2013-11-14 08:47:37.628,96,2.88,52.37593,4.918261,0,0,-1,9.5,5,1384415220,-0.638443,-0.2421265,-0.5747986,9.554241,-5.08366,-98.52773,334.5527,334.0718,25,0.0.0.0,10.137.250.93,3,0
2013-11-14 08:47:37.749,97,2.91,52.37593,4.918261,0,0,-1,9.5,5,1384415220,-0.6248169,0.003570557,-0.60849,9.00346,-5.741781,-96.3457,334.5285,334.0476,25,0.0.0.0,10.137.250.93,3,0
2013-11-14 08:47:37.946,98,2.94,52.37593,4.918261,0,0,-1,9.5,5,1384415220,-0.7243805,0.09178162,-0.6879883,8.562832,-5.303036,-97.60898,334.5336,334.0527,25,0.0.0.0,10.137.250.93,3,0
2013-11-14 08:47:38.076,99,2.97,52.37593,4.918261,0,0,-1,9.5,5,1384415220,-0.7243805,0.09178162,-0.6879883,8.893303,-5.632094,-97.37929,334.5314,334.0505,25,0.0.0.0,10.137.250.93,3,0
2013-11-14 08:47:38.175,100,3,52.37593,4.918261,0,0,-1,9.5,5,1384415220,-0.8826752,0.1657257,-0.7491608,10.10502,-5.412719,-96.46054,334.5157,334.0348,25,0.0.0.0,10.137.250.93,3,0
2013-11-14 08:47:38.287,101,3.03,52.37593,4.918261,0,0,-1,9.5,5,1384415220,-0.773468,0.1116943,-0.8654175,8.232365,-5.083657,-97.03476,334.5093,334.0284,25,0.0.0.0,10.137.250.93,3,0
2013-11-14 08:47:38.372,102,3.06,52.37593,4.918261,0,0,-1,9.5,5,1384415220,-0.6203003,0.06852722,-0.8734741,8.672989,-3.767406,-97.95351,334.5245,334.0436,25,0.0.0.0,10.137.250.93,3,0
2013-11-14 08:47:38.475,103,3.09,52.37593,4.918261,0,0,-1,9.5,5,1384415220,-0.3979797,-0.07261658,-0.9734802,9.058537,-4.37069,-97.78125,334.5308,334.0499,25,0.0.0.0,10.137.250.93,3,0
2013-11-14 08:47:38.573,104,3.12,52.37593,4.918261,0,0,-1,9.5,5,1384415221,-0.3979797,-0.07261658,-0.9734802,9.554241,-5.08366,-96.46054,334.523,334.0421,25,0.0.0.0,10.137.250.93,3,0
2013-11-14 08:47:38.682,105,3.15,52.37593,4.918261,0,0,-1,9.5,5,1384415221,-0.5103455,-0.08604431,-0.8667908,8.122208,-5.303036,-96.46054,334.5261,334.0452,25,0.0.0.0,10.137.250.93,3,0
2013-11-14 08:47:38.823,106,3.18,52.37593,4.918261,0,0,-1,9.5,5,1384415221,-0.4991455,-0.154953,-0.8987122,9.113613,-4.864285,-97.72383,334.5437,334.0628,25,0.0.0.0,10.137.250.93,3,0
2013-11-14 08:47:38.955,107,3.21,52.37593,4.918261,0,0,-1,9.5,5,1384415221,-0.4327545,-0.2372131,-0.8777618,9.00346,-5.632094,-96.80507,334.5174,334.0365,25,0.0.0.0,10.137.250.93,3,0
2013-11-14 08:47:39.080,108,3.24,52.37593,4.918261,0,0,-1,9.5,5,1384415221,-0.3369141,-0.2376251,-0.822876,7.956974,-6.125689,-96.97734,334.5055,334.0246,25,0.0.0.0,10.137.250.93,3,0
2013-11-14 08:47:39.191,109,3.27,52.37593,4.918261,0,0,-1,9.5,5,1384415221,-0.3495941,-0.2106476,-0.8921051,9.333927,-5.412722,-97.26445,334.4871,334.0062,25,0.0.0.0,10.137.250.93,3,0
2013-11-14 08:47:39.312,110,3.3,52.37593,4.918261,0,0,-1,9.5,5,1384415221,-0.4438324,-0.1647339,-0.8848114,9.00346,-5.083657,-97.14961,334.4592,333.9783,25,0.0.0.0,10.137.250.93,3,0
2013-11-14 08:47:39.414,111,3.33,52.37593,4.918261,0,0,-1,9.5,5,1384415221,-0.524826,-0.1563263,-0.8900146,8.617912,-5.467565,-97.89609,334.4351,333.9542,25,0.0.0.0,10.137.250.93,3,0
2013-11-14 08:47:39.515,112,3.36,52.37593,4.918261,0,0,-1,9.5,5,1384415221,-0.524826,-0.1563263,-0.8900146,8.397598,-5.028817,-98.01094,334.4325,333.9516,25,0.0.0.0,10.137.250.93,3,0
2013-11-14 08:47:39.616,113,3.39,52.37593,4.918261,0,0,-1,9.5,5,1384415221,-0.4522858,-0.1236877,-0.9053955,8.783146,-5.083657,-98.06836,334.4316,333.9507,25,0.0.0.0,10.137.250.93,3,0
2013-11-14 08:47:39.715,114,3.42,52.37593,4.918261,0,0,-1,9.5,5,1384415221,-0.4573669,-0.1042938,-0.9317627,9.058537,-5.028811,-96.63281,334.4138,333.9329,25,0.0.0.0,10.137.250.93,3,0
2013-11-14 08:47:39.895,115,3.45,52.37593,4.918261,0,0,-1,9.5,5,1384415221,-0.5278015,0.00743103,-1.048187,8.783146,-4.864282,-96.23085,334.4125,333.9316,25,0.0.0.0,10.137.250.93,3,0
2013-11-14 08:47:40.006,116,3.48,52.37593,4.918261,0,0,-1,9.5,5,1384415221,-0.6195679,-0.2075806,-0.9301758,9.00346,-5.083657,-96.46054,334.4064,333.9255,25,0.0.0.0,10.137.250.93,3,0
2013-11-14 08:47:40.112,117,3.51,52.37593,4.918261,0,0,-1,9.5,5,1384415221,-0.4944153,-0.07003784,-0.9008484,8.94838,-5.357876,-96.97734,334.4028,333.9219,25,0.0.0.0,10.137.250.93,3,0
2013-11-14 08:47:40.212,118,3.54,52.37593,4.918261,0,0,-1,9.5,5,1384415221,-0.4552765,-0.1485596,-0.9588928,8.672989,-4.425533,-98.06836,334.4015,333.9206,25,0.0.0.0,10.137.250.93,3,0
2013-11-14 08:47:40.354,119,3.57,52.37593,4.918261,0,0,-1,9.5,5,1384415223,-0.4717255,-0.1328125,-0.7681885,9.719475,-5.577251,-97.09218,334.3899,333.909,25,0.0.0.0,10.137.250.93,3,0
2013-11-14 08:47:40.440,120,3.6,52.37593,4.918261,0,0,-1,9.5,5,1384415223,-0.3873291,-0.1674805,-0.9585876,8.562832,-5.961159,-96.80507,334.381,333.9001,25,0.0.0.0,10.137.250.93,3,0
2013-11-14 08:47:40.542,121,3.63,52.37593,4.918261,0,0,-1,9.5,5,1384415223,-0.343689,-0.1400757,-1.075302,8.177288,-5.686934,-97.32187,334.389,333.9081,25,0.0.0.0,10.137.250.93,3,0
2013-11-14 08:47:40.638,122,3.66,52.37593,4.918261,0,0,-1,9.5,5,1384415223,-0.343689,-0.1400757,-1.075302,8.122208,-5.30303,-97.03476,334.3948,333.9139,25,0.0.0.0,10.137.250.93,3,0
2013-11-14 08:47:40.739,123,3.69,52.37593,4.918261,0,0,-1,9.5,5,1384415223,-0.5148163,-0.09487915,-1.098511,8.232365,-5.303033,-97.37929,334.4048,333.9239,25,0.0.0.0,10.137.250.93,3,0
2013-11-14 08:47:40.950,124,3.72,52.37593,4.918261,0,0,-1,9.5,5,1384415223,-0.7449646,0.007522583,-0.7608643,8.397598,-5.796627,-97.55156,334.4118,333.9309,25,0.0.0.0,10.137.250.93,3,0
2013-11-14 08:47:41.089,125,3.75,52.37593,4.918261,0,0,-1,9.5,5,1384415223,-0.5593414,-0.02157593,-0.871048,9.22377,-5.522408,-97.72383,334.4033,333.9224,25,0.0.0.0,10.137.250.93,3,0
2013-11-14 08:47:41.169,126,3.78,52.37593,4.918261,0,0,-1,9.5,5,1384415223,-0.5047455,0.04196167,-0.8534698,9.664394,-4.864285,-97.14961,334.3947,333.9138,25,0.0.0.0,10.137.250.93,3,0
2013-11-14 08:47:41.280,127,3.81,52.37593,4.918261,0,0,-1,9.5,5,1384415223,-0.3749237,-0.0912323,-0.927597,9.444084,-5.083657,-97.03476,334.3872,333.9063,25,0.0.0.0,10.137.250.93,3,0
2013-11-14 08:47:41.389,128,3.84,52.37593,4.918261,0,0,-1,9.5,5,1384415223,-0.4227142,-0.1179657,-0.745636,8.893303,-4.97397,-97.49414,334.3858,333.9049,25,0.0.0.0,10.137.250.93,3,0
2013-11-14 08:47:41.491,129,3.87,52.37593,4.918261,0,0,-1,9.5,5,1384415223,-0.4920807,-0.1017456,-0.8335724,9.00346,-4.315847,-97.49414,334.3913,333.9104,25,0.0.0.0,10.137.250.93,3,0
2013-11-14 08:47:41.595,130,3.9,52.37593,4.918261,0,0,-1,9.5,5,1384415223,-0.5726318,-0.02792358,-0.8438263,8.893303,-4.425533,-97.95351,334.3945,333.9136,25,0.0.0.0,10.137.250.93,3,0
2013-11-14 08:47:41.717,131,3.93,52.37593,4.918261,0,0,-1,9.5,5,1384415223,-0.6430511,0.02206421,-0.8705292,9.389004,-5.1385,-97.55156,334.3914,333.9105,25,0.0.0.0,10.137.250.93,3,0
2013-11-14 08:47:41.902,132,3.96,52.37593,4.918261,0,0,-1,9.5,5,1384415223,-0.5090179,-0.008361816,-0.9185791,8.783146,-5.083657,-96.80507,334.3926,333.9117,25,0.0.0.0,10.137.250.93,3,0
2013-11-14 08:47:42.031,133,3.99,52.37593,4.918261,0,0,-1,9.5,5,1384415223,-0.5090179,-0.008361816,-0.9185791,8.122208,-5.08366,-96.57539,334.401,333.9201,25,0.0.0.0,10.137.250.93,3,0
2013-11-14 08:47:42.113,134,4.02,52.37593,4.918261,0,0,-1,9.5,5,1384415223,-0.4247742,-0.205368,-0.9050903,8.783146,-4.973974,-97.03476,334.4147,333.9338,25,0.0.0.0,10.137.250.93,3,0
2013-11-14 08:47:42.209,135,4.05,52.37593,4.918261,0,0,-1,9.5,5,1384415223,-0.8133545,-0.002624512,-0.5206299,8.617912,-5.028817,-96.63281,334.4275,333.9466,25,0.0.0.0,10.137.250.93,3,0
2013-11-14 08:47:42.326,136,4.08,52.37593,4.918261,0,0,-1,9.5,5,1384415223,-0.4201965,-0.03140259,-0.8928528,9.058537,-5.248189,-96.8625,334.4272,333.9463,25,0.0.0.0,10.137.250.93,3,0
2013-11-14 08:47:42.425,137,4.11,52.37593,4.918261,0,0,-1,9.5,5,1384415223,-0.6569061,0.1111908,-0.7714996,8.012051,-4.864282,-97.37929,334.4376,333.9567,25,0.0.0.0,10.137.250.93,3,0
2013-11-14 08:47:42.527,138,4.14,52.37593,4.918261,0,0,-1,9.5,5,1384415223,-0.5330658,-0.01574707,-1.033539,7.571426,-4.864285,-96.57539,334.4555,333.9746,25,0.0.0.0,10.137.250.93,3,0
2013-11-14 08:47:42.609,139,4.17,52.37593,4.918261,0,0,-1,9.5,5,1384415223,-0.4642639,-0.1325989,-0.9443665,9.168694,-4.261001,-97.43672,334.4687,333.9878,25,0.0.0.0,10.137.250.93,3,0
2013-11-14 08:47:42.708,140,4.2,52.37593,4.918261,0,0,-1,9.5,5,1384415223,-0.4642639,-0.1325989,-0.9443665,8.562832,-5.522408,-97.37929,334.4746,333.9937,25,0.0.0.0,10.137.250.93,3,0
2013-11-14 08:47:42.930,141,4.23,52.37593,4.918261,0,0,-1,9.5,5,1384415223,-0.4724274,-0.2416229,-0.9129791,8.672989,-5.08366,-96.80507,334.4752,333.9943,25,0.0.0.0,10.137.250.93,3,0
2013-11-14 08:47:43.020,142,4.26,52.37593,4.918261,0,0,-1,10.65511,10,1384415224,-0.6518555,-0.08657837,-0.6959991,8.617912,-4.480379,-97.6664,334.4795,333.9986,25,0.0.0.0,10.137.250.93,3,0
2013-11-14 08:47:43.149,143,4.29,52.37593,4.918261,0,0,-1,10.65511,10,1384415224,-0.4627075,-0.08625793,-0.8928833,9.113613,-6.070849,-96.57539,334.4716,333.9907,25,0.0.0.0,10.137.250.93,3,0
2013-11-14 08:47:43.247,144,4.32,52.37593,4.918261,0,0,-1,10.65511,10,1384415224,-0.442215,-0.05122375,-0.7575684,9.22377,-5.632094,-96.11601,334.4632,333.9823,25,0.0.0.0,10.137.250.93,3,0
2013-11-14 08:47:43.340,145,4.35,52.37593,4.918261,0,0,-1,10.65511,10,1384415224,-0.5279236,-0.03718567,-0.7988129,8.672989,-4.97397,-96.69023,334.4673,333.9864,25,0.0.0.0,10.137.250.93,3,0
2013-11-14 08:47:43.465,146,4.38,52.37593,4.918261,0,0,-1,10.65511,10,1384415224,-0.6139526,-0.06739807,-0.7611389,8.342522,-5.412722,-97.83867,334.4716,333.9908,25,0.0.0.0,10.137.250.93,3,0
2013-11-14 08:47:43.567,147,4.41,52.37593,4.918261,0,0,-1,10.65511,10,1384415224,-0.4824371,-0.04237366,-0.9476013,8.342522,-5.193343,-97.83867,334.4822,334.0013,25,0.0.0.0,10.137.250.93,3,0
2013-11-14 08:47:43.665,148,4.44,52.37593,4.918261,0,0,-1,10.65511,10,1384415224,-0.4345398,-0.09066772,-0.9959717,7.51635,-5.357882,-95.8289,334.5048,334.0239,25,0.0.0.0,10.137.250.93,3,0
2013-11-14 08:47:44.016,149,4.47,52.37593,4.918261,0,0,-1,10.65511,10,1384415224,-0.4747162,-0.1174774,-1.022339,8.893303,-5.193343,-97.14961,334.5215,334.0406,25,0.0.0.0,10.137.250.93,3,0
2013-11-14 08:47:44.181,150,4.5,52.37593,4.918261,0,0,-1,10.65511,10,1384415224,-0.4747162,-0.1174774,-1.022339,9.664394,-4.644906,-97.26445,334.5195,334.0386,25,0.0.0.0,10.137.250.93,3,0
2013-11-14 08:47:44.273,151,4.53,52.37593,4.918261,0,0,-1,10.65511,10,1384415224,-0.6380463,-0.07196045,-0.6706696,10.82104,-5.577251,-97.09218,334.4903,334.0094,25,0.0.0.0,10.137.250.93,3,0
2013-11-14 08:47:44.362,152,4.56,52.37593,4.918261,0,0,-1,10.65511,10,1384415224,-0.6380463,-0.07196045,-0.6706696,10.43549,-6.180535,-96.00117,334.4634,333.9825,25,0.0.0.0,10.137.250.93,3,0
2013-11-14 08:47:44.722,153,4.59,52.37593,4.918261,0,0,-1,10.65511,10,1384415224,-0.6053009,-0.05467224,-0.8468018,10.6558,-5.851473,-96.11601,334.414,333.9331,25,0.0.0.0,10.137.250.93,3,0
2013-11-14 08:47:44.921,154,4.62,52.37593,4.918261,0,0,-1,9.5,5,1384415225,-0.6466827,0.002151489,-0.8140106,10.82104,-6.016003,-96.40312,334.3669,333.886,25,0.0.0.0,10.137.250.93,3,0
2013-11-14 08:47:45.434,155,4.65,52.37593,4.918261,0,0,-1,9.5,5,1384415225,-0.5067902,-0.0511322,-0.7812042,10.54565,-6.180532,-96.57539,334.3075,333.8266,25,0.0.0.0,10.137.250.93,3,0
2013-11-14 08:47:46.018,156,4.68,52.37593,4.918261,0,0,-1,9.5,5,1384415225,-0.4942932,-0.05255127,-0.8025665,11.64721,-5.522408,-96.23085,334.218,333.7371,25,0.0.0.0,10.137.250.93,3,0
2013-11-14 08:47:46.463,157,4.71,52.37593,4.918261,0,0,-1,9.5,5,1384415225,-0.5496826,0.05451965,-0.8614807,8.507755,-4.37069,-96.74765,334.1333,333.6524,25,0.0.0.0,10.137.250.93,1,0
2013-11-14 08:47:47.061,158,4.74,52.37593,4.918261,0,0,-1,9.5,5,1384415226,-0.5432129,0.02958679,-0.903244,8.94838,-6.125689,-96.8625,334.1562,333.6753,25,0.0.0.0,10.137.250.93,1,0
2013-11-14 08:47:47.274,159,4.77,52.37593,4.918261,0,0,-1,9.5,5,1384415226,-0.6033173,-0.03797913,-0.9451599,8.067131,-6.674123,-98.12578,334.1735,333.6926,25,0.0.0.0,10.137.250.93,1,0
2013-11-14 08:47:47.475,160,4.8,52.37593,4.918261,0,0,-1,9.5,5,1384415226,-0.6062012,-0.05192566,-0.8711548,8.562832,-5.083657,-98.29805,334.1951,333.7142,25,0.0.0.0,10.137.250.93,1,0
2013-11-14 08:47:47.637,161,4.83,52.37593,4.918261,0,0,-1,9.5,5,1384415226,-0.4717102,-0.06460571,-0.8978424,9.00346,-5.08366,-98.06836,334.2062,333.7253,25,0.0.0.0,10.137.250.93,1,0
2013-11-14 08:47:47.753,162,4.86,52.37593,4.918261,0,0,-1,9.5,5,1384415226,-0.5198212,-0.03364563,-0.9292603,8.893303,-5.412722,-97.37929,334.2186,333.7377,25,0.0.0.0,10.137.250.93,1,0
2013-11-14 08:47:48.021,163,4.89,52.37593,4.918261,0,0,-1,9.5,5,1384415226,-0.6378784,0.0184021,-0.9415588,8.893303,-6.070843,-97.03476,334.2283,333.7474,25,0.0.0.0,10.137.250.93,1,0
2013-11-14 08:47:48.138,164,4.92,52.37593,4.918261,0,0,-1,9.5,5,1384415226,-0.6093445,-0.000869751,-0.8508453,9.333927,-5.961159,-97.60898,334.235,333.7542,25,0.0.0.0,10.137.250.93,1,0
2013-11-14 08:47:48.285,165,4.95,52.37593,4.918261,0,0,-1,9.5,5,1384415226,-0.4424133,-0.05639648,-0.8987274,9.168694,-6.125695,-96.51796,334.237,333.7561,25,0.0.0.0,10.137.250.93,1,0
2013-11-14 08:47:48.372,166,4.98,52.37593,4.918261,0,0,-1,9.5,5,1384415226,-0.4394379,-0.0614624,-0.6942444,9.168694,-5.906316,-97.55156,334.2397,333.7588,25,0.0.0.0,10.137.250.93,1,0
2013-11-14 08:47:48.478,167,5.01,52.37593,4.918261,0,0,-1,9.5,5,1384415226,-0.3325043,-0.131546,-0.8610992,9.113613,-5.85147,-97.37929,334.2442,333.7633,25,0.0.0.0,10.137.250.93,1,0
2013-11-14 08:47:48.587,168,5.04,52.37593,4.918261,0,0,-1,9.5,5,1384415226,-0.2870941,-0.2028809,-0.8695068,8.562832,-6.070846,-97.95351,334.2556,333.7747,25,0.0.0.0,10.137.250.93,1,0
2013-11-14 08:47:48.622,169,5.07,52.37593,4.918261,0,0,-1,9.5,5,1384415226,-0.2498932,-0.2692566,-0.7757111,8.562832,-6.070846,-97.49414,334.261,333.7802,25,0.0.0.0,10.137.250.93,1,0
2013-11-14 08:47:48.702,170,5.1,52.37593,4.918261,0,0,-1,9.5,5,1384415226,-0.1799927,-0.2518311,-0.9702148,9.499161,-6.016003,-97.09218,334.2644,333.7835,25,0.0.0.0,10.137.250.93,1,0
2013-11-14 08:47:48.985,171,5.13,52.37593,4.918261,0,0,-1,9.5,5,1384415227,-0.1799927,-0.2518311,-0.9702148,9.00346,-6.728972,-97.49414,334.2571,333.7762,25,0.0.0.0,10.137.250.93,1,0
2013-11-14 08:47:49.088,172,5.16,52.37593,4.918261,0,0,-1,9.5,5,1384415227,-0.6504211,0.002105713,-0.8266754,8.728069,-5.796624,-97.6664,334.2846,333.8037,25,0.0.0.0,10.137.250.93,1,0
2013-11-14 08:47:49.195,173,5.19,52.37593,4.918261,0,0,-1,9.5,5,1384415227,-0.7498322,0.07974243,-0.8895874,9.058537,-6.125686,-97.43672,334.2924,333.8115,25,0.0.0.0,10.137.250.93,1,0
2013-11-14 08:47:49.305,174,5.22,52.37593,4.918261,0,0,-1,9.5,5,1384415227,-0.5808258,-0.02377319,-0.9451141,9.058537,-6.345061,-97.78125,334.2935,333.8127,25,0.0.0.0,10.137.250.93,1,0
2013-11-14 08:47:49.502,175,5.25,52.37593,4.918261,0,0,-1,9.5,5,1384415227,-0.4006042,-0.1281281,-0.9568024,8.012051,-5.741781,-97.49414,334.3132,333.8323,25,0.0.0.0,10.137.250.93,1,0
2013-11-14 08:47:49.613,176,5.28,52.37593,4.918261,0,0,-1,9.5,5,1384415227,-0.4050598,-0.1622772,-0.8525391,8.562832,-5.85147,-97.83867,334.3286,333.8477,25,0.0.0.0,10.137.250.93,1,0
2013-11-14 08:47:49.702,177,5.31,52.37593,4.918261,0,0,-1,9.5,5,1384415227,-0.3512115,-0.1672821,-0.7471771,9.389004,-5.577251,-98.01094,334.3323,333.8514,25,0.0.0.0,10.137.250.93,1,0
2013-11-14 08:47:49.738,178,5.34,52.37593,4.918261,0,0,-1,9.5,5,1384415227,-0.3512115,-0.1672821,-0.7471771,8.893303,-5.961156,-97.37929,334.3372,333.8564,25,0.0.0.0,10.137.250.93,1,0
2013-11-14 08:47:50.048,179,5.37,52.37593,4.918261,0,0,-1,9.5,5,1384415227,-0.4636536,-0.09089661,-0.867569,7.901897,-5.412719,-97.03476,334.3572,333.8763,25,0.0.0.0,10.137.250.93,1,0
2013-11-14 08:47:50.170,180,5.4,52.37593,4.918261,0,0,-1,9.5,5,1384415227,-0.4912109,-0.04647827,-0.8804626,8.94838,-5.357876,-97.43672,334.3736,333.8927,25,0.0.0.0,10.137.250.93,1,0
2013-11-14 08:47:50.289,181,5.43,52.37593,4.918261,0,0,-1,9.5,5,1384415227,-0.4042511,-0.04804993,-0.9716187,8.562832,-5.303033,-97.37929,334.3805,333.8996,25,0.0.0.0,10.137.250.93,1,0
2013-11-14 08:47:50.409,182,5.46,52.37593,4.918261,0,0,-1,9.5,5,1384415227,-0.4401703,-0.01507568,-0.9718628,8.672989,-4.864285,-97.72383,334.3897,333.9088,25,0.0.0.0,10.137.250.93,1,0
2013-11-14 08:47:50.522,183,5.49,52.37593,4.918261,0,0,-1,9.5,5,1384415227,-0.4401703,-0.01507568,-0.9718628,8.287441,-6.125692,-96.63281,334.3974,333.9165,25,0.0.0.0,10.137.250.93,1,0
2013-11-14 08:47:50.622,184,5.52,52.37593,4.918261,0,0,-1,9.5,5,1384415227,-0.6043091,0.07507324,-0.8675842,8.452679,-6.399908,-97.26445,334.4146,333.9337,25,0.0.0.0,10.137.250.93,1,0
2013-11-14 08:47:50.927,185,5.55,52.37593,4.918261,0,0,-1,9.5,5,1384415228,-0.4957733,0.02320862,-0.8533783,8.232365,-5.522408,-97.83867,334.424,333.9431,25,0.0.0.0,10.137.250.93,1,0
2013-11-14 08:47:51.057,186,5.58,52.37593,4.918261,0,0,-1,9.5,5,1384415228,-0.2915192,-0.032547,-0.9546661,8.783146,-5.08366,-97.95351,334.4301,333.9492,25,0.0.0.0,10.137.250.93,1,0
2013-11-14 08:47:51.194,187,5.61,52.37593,4.918261,0,0,-1,9.5,5,1384415228,-0.3686066,-0.0459137,-0.8721771,9.168694,-5.248189,-96.05859,334.434,333.9531,25,0.0.0.0,10.137.250.93,1,0
2013-11-14 08:47:51.312,188,5.64,52.37593,4.918261,0,0,-1,9.5,5,1384415228,-0.503006,-0.06614685,-0.7032471,9.389004,-5.248186,-96.63281,334.4312,333.9503,25,0.0.0.0,10.137.250.93,1,0
2013-11-14 08:47:51.429,189,5.67,52.37593,4.918261,0,0,-1,9.5,5,1384415228,-0.6289368,0.05371094,-0.5794373,8.838223,-5.906313,-97.43672,334.4306,333.9497,25,0.0.0.0,10.137.250.93,1,0
2013-11-14 08:47:51.510,190,5.7,52.37593,4.918261,0,0,-1,9.5,5,1384415228,-0.3809814,-0.027771,-1.16629,9.058537,-6.345065,-97.43672,334.428,333.9471,25,0.0.0.0,10.137.250.93,1,0
2013-11-14 08:47:51.694,191,5.73,52.37593,4.918261,0,0,-1,9.5,5,1384415228,-0.5037842,-0.04769897,-1.043076,8.672989,-6.399908,-97.60898,334.4278,333.9469,25,0.0.0.0,10.137.250.93,1,0
2013-11-14 08:47:51.885,192,5.76,52.37593,4.918261,0,0,-1,9.5,5,1384415228,-0.5037842,-0.04769897,-1.043076,8.562832,-5.632097,-96.80507,334.4303,333.9494,25,0.0.0.0,10.137.250.93,1,0
2013-11-14 08:47:51.954,193,5.79,52.37593,4.918261,0,0,-1,9.5,5,1384415228,-0.6090088,-0.05010986,-0.8925934,8.617912,-5.138503,-96.97734,334.4383,333.9574,25,0.0.0.0,10.137.250.93,1,0
2013-11-14 08:47:52.057,194,5.82,52.37593,4.918261,0,0,-1,9.5,5,1384415228,-0.6090088,-0.05010986,-0.8925934,9.00346,-5.193346,-97.49414,334.444,333.9631,25,0.0.0.0,10.137.250.93,1,0
2013-11-14 08:47:52.156,195,5.85,52.37593,4.918261,0,0,-1,9.5,5,1384415228,-0.5837402,-0.03388977,-0.8808594,9.168694,-5.467565,-96.51796,334.4442,333.9633,25,0.0.0.0,10.137.250.93,1,0
2013-11-14 08:47:52.309,196,5.88,52.37593,4.918261,0,0,-1,9.5,5,1384415228,-0.469101,-0.1118011,-1.033051,8.728069,-5.686937,-95.71407,334.4384,333.9575,25,0.0.0.0,10.137.250.93,1,0
2013-11-14 08:47:52.446,197,5.91,52.37593,4.918261,0,0,-1,9.5,5,1384415229,-0.6348877,-0.02775574,-0.7467194,7.571426,-5.412719,-96.69023,334.4568,333.9759,25,0.0.0.0,10.137.250.93,1,0
2013-11-14 08:47:52.572,198,5.94,52.37593,4.918261,0,0,-1,9.5,5,1384415229,-0.621933,-0.06187439,-0.7076111,8.067131,-5.906316,-97.89609,334.4683,333.9874,25,0.0.0.0,10.137.250.93,1,0
2013-11-14 08:47:52.708,199,5.97,52.37593,4.918261,0,0,-1,9.5,5,1384415229,-0.2270966,-0.2434692,-0.9012909,9.333927,-6.619283,-97.26445,334.4677,333.9868,25,0.0.0.0,10.137.250.93,1,0
2013-11-14 08:47:52.952,200,6,52.37593,4.918261,0,0,-1,9.5,5,1384415229,-0.2270966,-0.2434692,-0.9012909,9.499161,-6.564437,-96.17343,334.4512,333.9703,25,0.0.0.0,10.137.250.93,1,0
2013-11-14 08:47:53.296,201,6.03,52.37593,4.918261,0,0,-1,9.5,5,1384415229,-0.4970551,-0.1152802,-0.7206268,8.672989,-5.303033,-96.80507,334.449,333.9681,25,0.0.0.0,10.137.250.93,1,0
2013-11-14 08:47:53.577,202,6.06,52.37593,4.918261,0,0,-1,9.5,5,1384415229,-0.9455872,0.07377625,-0.6790466,9.113613,-5.741784,-97.95351,334.456,333.9751,25,0.0.0.0,10.137.250.93,1,0
2013-11-14 08:47:53.742,203,6.09,52.37593,4.918261,0,0,-1,9.5,5,1384415229,-0.5923462,0.08125305,-1.025269,9.333927,-5.522411,-97.95351,334.4564,333.9755,25,0.0.0.0,10.137.250.93,1,0
2013-11-14 08:47:53.954,204,6.12,52.37593,4.918261,0,0,-1,9.5,5,1384415229,-0.4740601,0.02592468,-0.8299561,10.43549,-5.851473,-97.14961,334.4326,333.9517,25,0.0.0.0,10.137.250.93,1,0
2013-11-14 08:47:54.069,205,6.15,52.37593,4.918261,0,0,-1,9.5,5,1384415229,-0.565567,-0.06056213,-0.9809875,11.04135,-5.357876,-96.63281,334.3968,333.9159,25,0.0.0.0,10.137.250.93,1,0
2013-11-14 08:47:54.175,206,6.18,52.37593,4.918261,0,0,-1,9.5,5,1384415229,-0.6206207,-0.03733826,-0.9111633,10.76596,-5.083657,-97.14961,334.375,333.8941,25,0.0.0.0,10.137.250.93,1,0
2013-11-14 08:47:54.280,207,6.21,52.37593,4.918261,0,0,-1,9.5,5,1384415229,-0.5115509,-0.02760315,-0.8922577,11.64721,-6.070843,-95.88632,333.2556,332.7747,25,0.0.0.0,10.137.250.93,1,0
2013-11-14 08:47:54.387,208,6.24,52.37593,4.918261,0,0,-1,9.5,5,1384415230,-0.4047852,-0.05448914,-0.8197174,11.04135,-6.454751,-96.17343,333.1808,332.6999,25,0.0.0.0,10.137.250.93,1,0
2013-11-14 08:47:54.494,209,6.27,52.37593,4.918261,0,0,-1,9.5,5,1384415230,-0.4047852,-0.05448914,-0.8197174,10.98627,-6.948345,-94.85274,333.0247,332.5438,25,0.0.0.0,10.137.250.93,1,0
2013-11-14 08:47:54.627,210,6.3,52.37593,4.918261,0,0,-1,9.5,5,1384415230,-0.3962402,-0.06483459,-0.9734802,10.82104,-5.906316,-96.17343,333.0412,332.5603,25,0.0.0.0,10.137.250.93,1,0
2013-11-14 08:47:54.750,211,6.33,52.37593,4.918261,0,0,-1,9.5,5,1384415230,-0.5633392,-0.005203247,-0.9061584,11.09643,-6.399908,-94.96758,333.0426,332.5617,25,0.0.0.0,10.137.250.93,1,0
2013-11-14 08:47:54.949,212,6.36,52.37593,4.918261,0,0,-1,9.5,5,1384415230,-0.6390533,-0.0007781982,-0.7993469,10.32533,-5.522408,-95.54179,333.0651,332.5842,25,0.0.0.0,10.137.250.93,1,0
2013-11-14 08:47:55.063,213,6.39,52.37593,4.918261,0,0,-1,9.5,5,1384415230,-0.4085693,-0.04884338,-0.8509064,10.32533,-6.290221,-96.11601,333.0925,332.6116,25,0.0.0.0,10.137.250.93,1,0
2013-11-14 08:47:55.161,214,6.42,52.37593,4.918261,0,0,-1,9.5,5,1384415230,-0.2710419,-0.1394806,-0.9542999,11.4269,-5.741784,-96.57539,333.0993,332.6184,25,0.0.0.0,10.137.250.93,1,0
2013-11-14 08:47:55.273,215,6.45,52.37593,4.918261,0,0,-1,9.5,5,1384415230,-0.5099945,-0.02137756,-0.8494263,10.93119,-5.467565,-97.20703,333.1074,332.6265,25,0.0.0.0,10.137.250.93,1,0
2013-11-14 08:47:55.397,216,6.48,52.37593,4.918261,0,0,-1,9.5,5,1384415230,-0.5099945,-0.02137756,-0.8494263,10.43549,-5.412719,-97.37929,333.1309,332.65,25,0.0.0.0,10.137.250.93,1,0
2013-11-14 08:47:55.479,217,6.51,52.37593,4.918261,0,0,-1,9.5,5,1384415230,-0.6669769,0.05735779,-0.8035278,9.00346,-5.083657,-98.41289,333.1824,332.7015,25,0.0.0.0,10.137.250.93,1,0
2013-11-14 08:47:55.577,218,6.54,52.37593,4.918261,0,0,-1,9.5,5,1384415230,-0.6832123,0.04194641,-0.9242706,9.22377,-5.193343,-97.14961,333.2282,332.7473,25,0.0.0.0,10.137.250.93,1,0
2013-11-14 08:47:55.675,219,6.57,52.37593,4.918261,0,0,-1,9.5,5,1384415230,-0.6852722,0.05264282,-0.9350128,9.00346,-5.083657,-96.11601,333.256,332.7751,25,0.0.0.0,10.137.250.93,1,0
2013-11-14 08:47:55.884,220,6.6,52.37593,4.918261,0,0,-1,9.5,5,1384415231,-0.5753784,0.05784607,-0.8732605,8.893303,-4.535219,-97.49414,333.2881,332.8072,25,0.0.0.0,10.137.250.93,1,0
2013-11-14 08:47:56.012,221,6.63,52.37593,4.918261,0,0,-1,9.5,5,1384415231,-0.4907532,-0.04096985,-0.5932312,9.278851,-5.357876,-98.58516,333.3581,332.8772,25,0.0.0.0,10.137.250.93,1,0
2013-11-14 08:47:56.135,222,6.66,52.37593,4.918261,0,0,-1,9.5,5,1384415231,-0.2112732,-0.193634,-0.6521454,9.389004,-5.796624,-97.78125,333.3886,332.9077,25,0.0.0.0,10.137.250.93,1,0
2013-11-14 08:47:56.218,223,6.69,52.37593,4.918261,0,0,-1,9.5,5,1384415231,-0.3981171,-0.1620178,-0.9148254,9.113613,-5.961156,-96.46054,333.4085,332.9276,25,0.0.0.0,10.137.250.93,1,0
2013-11-14 08:47:56.327,224,6.72,52.37593,4.918261,0,0,-1,9.5,5,1384415231,-0.6616974,0.05441284,-0.9037781,8.783146,-5.083657,-96.69023,333.4493,332.9684,25,0.0.0.0,10.137.250.93,1,0
2013-11-14 08:47:56.440,225,6.75,52.37593,4.918261,0,0,-1,9.5,5,1384415231,-0.7014618,0.09873962,-0.9527283,9.00346,-5.30303,-97.60898,333.474,332.9931,25,0.0.0.0,10.137.250.93,1,0
2013-11-14 08:47:56.563,226,6.78,52.37593,4.918261,0,0,-1,9.5,5,1384415231,-0.7014618,0.09873962,-0.9527283,9.444084,-6.838656,-95.42696,333.5123,333.0314,25,0.0.0.0,10.137.250.93,1,0
2013-11-14 08:47:56.669,227,6.81,52.37593,4.918261,0,0,-1,9.5,5,1384415231,-0.7759247,0.2062073,-0.7907257,9.939785,-6.454748,-95.59921,333.5179,333.037,25,0.0.0.0,10.137.250.93,1,0
2013-11-14 08:47:56.740,228,6.84,52.37593,4.918261,0,0,-1,9.5,5,1384415231,-0.7759247,0.2062073,-0.7907257,10.71088,-5.248186,-96.97734,333.5259,333.045,25,0.0.0.0,10.137.250.93,1,0
2013-11-14 08:47:56.864,229,6.87,52.37593,4.918261,0,0,-1,9.5,5,1384415231,-0.2052002,0.06893921,-0.7774048,11.9226,-5.79663,-95.59921,333.4939,333.013,25,0.0.0.0,10.137.250.93,1,0
2013-11-14 08:47:56.979,230,6.9,52.37593,4.918261,0,0,-1,9.5,5,1384415231,-0.3046112,0.05310059,-0.5859528,11.64721,-6.180532,-95.3121,333.4598,332.9789,25,0.0.0.0,10.137.250.93,1,0
2013-11-14 08:47:57.100,231,6.93,52.37593,4.918261,0,0,-1,9.5,5,1384415232,-0.5118561,0.116806,-0.9150238,12.03276,-5.686941,-96.74765,333.4483,332.9674,25,0.0.0.0,10.137.250.93,1,0
2013-11-14 08:47:57.188,232,6.96,52.37593,4.918261,0,0,-1,9.5,5,1384415232,-0.5090027,0.1251526,-0.958847,12.08783,-5.193346,-97.37929,333.437,332.9561,25,0.0.0.0,10.137.250.93,1,0
2013-11-14 08:47:57.294,233,6.99,52.37593,4.918261,0,0,-1,9.5,5,1384415232,-0.5090027,0.1251526,-0.958847,12.14291,-4.919127,-96.97734,333.4261,332.9452,25,0.0.0.0,10.137.250.93,1,0
2013-11-14 08:47:57.407,234,7.02,52.37593,4.918261,0,0,-1,9.5,5,1384415232,-0.7030487,0.2046204,-0.9169922,10.93119,-5.686937,-96.17343,333.4233,332.9424,25,0.0.0.0,10.137.250.93,1,0
2013-11-14 08:47:57.511,235,7.05,52.37593,4.918261,0,0,-1,9.5,5,1384415232,-0.6243286,0.1343842,-0.9447327,11.37182,-6.564437,-96.05859,333.419,332.9381,25,0.0.0.0,10.137.250.93,1,0
2013-11-14 08:47:57.630,236,7.08,52.37593,4.918261,0,0,-1,9.5,5,1384415232,-0.6186676,0.1399689,-0.9651794,11.97768,-6.61928,-96.69023,333.4054,332.9245,25,0.0.0.0,10.137.250.93,1,0
2013-11-14 08:47:57.706,237,7.11,52.37593,4.918261,0,0,-1,9.5,5,1384415232,-0.5272827,0.1362152,-0.9638062,11.4269,-5.632097,-97.14961,333.3859,332.905,25,0.0.0.0,10.137.250.93,1,0
2013-11-14 08:47:57.742,238,7.14,52.37593,4.918261,0,0,-1,9.5,5,1384415232,-0.5097961,0.06781006,-0.7075195,11.37182,-5.90632,-96.40312,333.3817,332.9008,25,0.0.0.0,10.137.250.93,1,0
2013-11-14 08:47:57.925,239,7.17,52.37593,4.918261,0,0,-1,9.5,5,1384415232,-0.5097961,0.06781006,-0.7075195,11.04135,-6.454754,-96.40312,333.3772,332.8963,25,0.0.0.0,10.137.250.93,1,0
2013-11-14 08:47:58.046,240,7.2,52.37593,4.918261,0,0,-1,9.5,5,1384415232,-0.5673676,0.08859253,-0.6961212,10.21518,-5.632097,-97.49414,333.3928,332.9119,25,0.0.0.0,10.137.250.93,1,0
2013-11-14 08:47:58.143,241,7.23,52.37593,4.918261,0,0,-1,9.5,5,1384415232,-0.4451599,0.0526886,-0.8338013,9.994865,-6.180532,-97.26445,333.4145,332.9336,25,0.0.0.0,10.137.250.93,1,0
2013-11-14 08:47:58.244,242,7.26,52.37593,4.918261,0,0,-1,9.5,5,1384415232,-0.3790283,0,-0.8957062,9.994865,-6.290221,-97.49414,333.4247,332.9438,25,0.0.0.0,10.137.250.93,1,0
2013-11-14 08:47:58.344,243,7.29,52.37593,4.918261,0,0,-1,9.5,5,1384415232,-0.489151,0.07460022,-0.8856201,9.389004,-6.235375,-96.74765,333.448,332.9671,25,0.0.0.0,10.137.250.93,1,0
2013-11-14 08:47:58.457,244,7.32,52.37593,4.918261,0,0,-1,9.5,5,1384415233,-0.4863739,-0.02339172,-0.802597,9.058537,-5.357879,-97.20703,333.5049,333.024,25,0.0.0.0,10.137.250.93,1,0
2013-11-14 08:47:58.561,245,7.35,52.37593,4.918261,0,0,-1,9.5,5,1384415233,-0.3514099,-0.1034088,-0.8164673,9.058537,-5.248193,-97.6664,333.5419,333.061,25,0.0.0.0,10.137.250.93,1,0
2013-11-14 08:47:58.794,246,7.38,52.37593,4.918261,0,0,-1,9.5,5,1384415233,-0.4558411,-0.05403137,-0.8822479,8.893303,-5.632101,-97.95351,333.5705,333.0896,25,0.0.0.0,10.137.250.93,1,0
2013-11-14 08:47:59.049,247,7.41,52.37593,4.918261,0,0,-1,9.5,5,1384415233,-0.6073608,0.1138458,-1.020538,8.783146,-5.083657,-97.49414,333.6091,333.1282,25,0.0.0.0,10.137.250.93,1,0
2013-11-14 08:47:59.170,248,7.44,52.37593,4.918261,0,0,-1,9.5,5,1384415233,-0.6092987,0.1335449,-0.8988953,9.22377,-4.973968,-97.72383,333.6316,333.1507,25,0.0.0.0,10.137.250.93,1,0
2013-11-14 08:47:59.311,249,7.47,52.37593,4.918261,0,0,-1,9.5,5,1384415233,-0.5824585,0.1577911,-0.8589478,8.452679,-5.632094,-97.26445,333.6678,333.1869,25,0.0.0.0,10.137.250.93,1,0
2013-11-14 08:47:59.463,250,7.5,52.37593,4.918261,0,0,-1,9.5,5,1384415233,-0.5873718,0.1685028,-0.874588,8.067131,-5.796627,-97.78125,333.7082,333.2273,25,0.0.0.0,10.137.250.93,1,0
2013-11-14 08:47:59.608,251,7.53,52.37593,4.918261,0,0,-1,9.5,5,1384415233,-0.6937866,0.1936646,-0.810791,9.00346,-5.961159,-97.14961,333.7268,333.2459,25,0.0.0.0,10.137.250.93,1,0
2013-11-14 08:47:59.802,252,7.56,52.37593,4.918261,0,0,-1,9.5,5,1384415233,-0.6699982,0.2090912,-0.8915558,8.838223,-6.345068,-96.28828,334.9838,334.5029,25,0.0.0.0,10.137.250.93,1,0
2013-11-14 08:47:59.965,253,7.59,52.37593,4.918261,0,0,-1,9.5,5,1384415233,-0.6699982,0.2090912,-0.8915558,8.562832,-4.425536,-95.54179,334.4713,333.9904,25,0.0.0.0,10.137.250.93,1,0
2013-11-14 08:48:00.090,254,7.62,52.37593,4.918261,0,0,-1,9.5,5,1384415233,-0.1509399,-0.1796875,-0.8154755,8.94838,-3.931942,-95.36952,333.2357,332.7549,25,0.0.0.0,10.137.250.93,1,0
2013-11-14 08:48:00.225,255,7.65,52.37593,4.918261,0,0,-1,9.5,5,1384415234,-0.1509399,-0.1796875,-0.8154755,8.838223,-3.05444,-93.87656,327.727,327.2461,25,0.0.0.0,10.137.250.93,1,0
2013-11-14 08:48:00.356,256,7.68,52.37593,4.918261,0,0,-1,9.5,5,1384415234,-0.4112549,-0.09115601,-0.88974,7.351116,-2.560848,-93.7043,326.0328,325.5519,25,0.0.0.0,10.137.250.93,1,0
2013-11-14 08:48:00.473,257,7.71,52.37593,4.918261,0,0,-1,9.5,5,1384415234,-0.4112549,-0.09115601,-0.88974,6.414787,0.2361765,-96.51796,321.7831,321.3022,25,0.0.0.0,10.137.250.93,1,0
2013-11-14 08:48:00.598,258,7.74,52.37593,4.918261,0,0,-1,9.5,5,1384415234,-0.3593445,-0.05683899,-0.7640381,6.359707,0.8394539,-97.83867,316.7512,316.2703,25,0.0.0.0,10.137.250.93,1,0
2013-11-14 08:48:00.693,259,7.77,52.37593,4.918261,0,0,-1,9.5,5,1384415234,-0.6437073,0.1643982,-0.8046875,7.51635,0.6749215,-96.97734,314.3192,313.8383,25,0.0.0.0,10.137.250.93,1,0
2013-11-14 08:48:00.925,260,7.8,52.37593,4.918261,0,0,-1,9.5,5,1384415234,-0.6437073,0.1643982,-0.8046875,7.571426,1.607264,-96.46054,315.0454,314.5645,25,0.0.0.0,10.137.250.93,1,0
2013-11-14 08:48:01.025,261,7.83,52.37593,4.918261,0,0,-1,9.5,5,1384415234,-0.6753693,0.1460266,-1.06958,7.79174,1.607264,-95.42696,319.1019,318.621,25,0.0.0.0,10.137.250.93,1,0
2013-11-14 08:48:01.145,262,7.86,52.37593,4.918261,0,0,-1,9.5,5,1384415234,-0.6340179,0.1134491,-1.014801,8.287441,1.442735,-93.30234,319.7105,319.2296,25,0.0.0.0,10.137.250.93,1,0
2013-11-14 08:48:01.383,263,7.89,52.37593,4.918261,0,0,-1,9.5,5,1384415234,-0.2865601,-0.1264191,-0.9495392,9.554241,-0.4767935,-91.6371,325.1996,324.7187,25,0.0.0.0,10.137.250.93,1,0
2013-11-14 08:48:01.517,264,7.92,52.37593,4.918261,0,0,-1,9.5,5,1384415234,-0.07730103,-0.2772064,-0.8451233,10.76596,-0.5864799,-86.58398,329.198,328.7171,25,0.0.0.0,10.137.250.93,1,0
2013-11-14 08:48:01.604,265,7.95,52.37598,4.918282,0,0.385476,-1,9.5,5,1384415235,-0.1216888,-0.2105713,-1.031418,12.14291,-1.18976,-83.42578,355.9691,355.4882,26,0.0.0.0,10.137.250.93,1,0
2013-11-14 08:48:01.717,266,7.98,52.37598,4.918282,0,0.385476,-1,9.5,5,1384415235,-0.6715546,0.09353638,-0.8133698,12.91401,-1.29945,-83.77031,358.8259,358.345,26,0.0.0.0,10.137.250.93,1,0
2013-11-14 08:48:01.928,267,8.01,52.37598,4.918282,0,0.385476,-1,9.5,5,1384415235,-0.4829254,0.04450989,-1.065613,13.35463,-2.286629,-83.31093,3.639165,3.158258,26,0.0.0.0,10.137.250.93,1,0
2013-11-14 08:48:02.041,268,8.04,52.37598,4.918282,0,0.385476,-1,9.5,5,1384415235,-0.4249878,-0.02281189,-0.9269714,13.96049,-2.780221,-84.05742,3.935874,3.454966,26,0.0.0.0,10.137.250.93,1,0
2013-11-14 08:48:02.144,269,8.07,52.37598,4.918282,0,0.385476,-1,9.5,5,1384415235,-0.4249878,-0.02281189,-0.9269714,12.96908,-2.999599,-84.28711,1.418618,0.9377105,26,0.0.0.0,10.137.250.93,1,0
2013-11-14 08:48:02.301,270,8.099999,52.37598,4.918282,0,0.385476,-1,9.5,5,1384415235,-0.3185272,-0.1032562,-0.7267609,12.4183,-2.999599,-84.17226,0.7321676,0.25126,26,0.0.0.0,10.137.250.93,1,0
2013-11-14 08:48:02.396,271,8.13,52.37598,4.918282,0,0.385476,-1,9.5,5,1384415235,-0.3185272,-0.1032562,-0.7267609,12.19799,-3.438344,-84.40195,358.6963,358.2154,26,0.0.0.0,10.137.250.93,1,0
2013-11-14 08:48:02.542,272,8.16,52.37598,4.918282,0,0.385476,-1,9.5,5,1384415235,-0.3697205,-0.03619385,-0.8819427,11.64721,-3.438344,-84.63164,359.2311,358.7502,26,0.0.0.0,10.137.250.93,1,0
2013-11-14 08:48:02.666,273,8.19,52.37598,4.918282,0,0.385476,-1,9.5,5,1384415235,-0.5295105,0.06219482,-0.9421997,11.70229,-2.835067,-84.80391,359.5876,359.1067,26,0.0.0.0,10.137.250.93,1,0
2013-11-14 08:48:02.812,274,8.22,52.37598,4.918282,0,0.385476,-1,9.5,5,1384415235,-0.4684143,0.06056213,-0.9877167,11.86752,-2.999599,-85.32069,359.4681,358.9872,26,0.0.0.0,10.137.250.93,1,0
2013-11-14 08:48:03.040,275,8.25,52.37598,4.918282,0,0.385476,-1,9.5,5,1384415235,-0.4155273,-0.02561951,-1.109955,12.03276,-4.151315,-84.91875,358.7402,358.2593,26,0.0.0.0,10.137.250.93,1,0
2013-11-14 08:48:03.201,276,8.28,52.37598,4.918282,0,0.385476,-1,9.5,5,1384415235,-0.4447327,-0.03491211,-1.12175,10.32533,-2.999599,-84.17226,358.1819,357.701,26,0.0.0.0,10.137.250.93,1,0
2013-11-14 08:48:03.295,277,8.309999,52.37598,4.918282,0,0.385476,-1,9.5,5,1384415235,-0.4447327,-0.03491211,-1.12175,10.6558,-2.780227,-84.86133,358.3255,357.8446,26,0.0.0.0,10.137.250.93,1,0
2013-11-14 08:48:03.417,278,8.34,52.37598,4.918282,0,0,-1,9.5,5,1384415236,-0.4586792,-0.05686951,-0.8773651,11.53705,-3.548037,-84.63164,358.3643,357.8834,26,0.0.0.0,10.137.250.93,1,0
2013-11-14 08:48:03.506,279,8.37,52.37598,4.918282,0,0,-1,9.5,5,1384415236,-0.4586792,-0.05686951,-0.8773651,11.70229,-3.931942,-83.42578,1.763602,1.282694,26,0.0.0.0,10.137.250.93,1,0
2013-11-14 08:48:03.623,280,8.4,52.37598,4.918282,0,0,-1,9.5,5,1384415236,-0.4552307,-0.01890564,-0.7781525,11.37182,-3.493194,-84.57422,3.022912,2.542005,26,0.0.0.0,10.137.250.93,1,0
2013-11-14 08:48:03.734,281,8.429999,52.37598,4.918282,0,0,-1,9.5,5,1384415236,-0.3258972,0.0112915,-0.7173462,11.64721,-3.328661,-84.63164,2.795264,2.314356,26,0.0.0.0,10.137.250.93,1,0
2013-11-14 08:48:03.933,282,8.46,52.37598,4.918282,0,0,-1,9.5,5,1384415236,-0.2292175,0.01008606,-0.8542633,12.36322,-4.041625,-83.65547,3.013715,2.532808,26,0.0.0.0,10.137.250.93,1,0
2013-11-14 08:48:04.033,283,8.49,52.37598,4.918282,0,0,-1,9.5,5,1384415236,-0.4797668,0.1007538,-0.7814941,11.86752,-3.877093,-84.5168,3.08902,2.608113,26,0.0.0.0,10.137.250.93,1,0
2013-11-14 08:48:04.170,284,8.52,52.37598,4.918282,0,0,-1,9.5,5,1384415236,-0.6009674,0.2038269,-0.78125,11.86752,-4.206158,-84.40195,3.169399,2.688491,26,0.0.0.0,10.137.250.93,1,0
2013-11-14 08:48:04.722,285,8.55,52.37598,4.918282,0,0,-1,9.5,5,1384415236,-0.5735779,0.1682129,-0.7693634,11.75737,-3.109282,-83.4832,2.406382,1.925474,26,0.0.0.0,10.137.250.93,1,0
2013-11-14 08:48:05.044,286,8.58,52.37598,4.918282,0,0,-1,9.5,5,1384415236,-0.6038818,0.1601257,-0.757782,10.98627,-2.341479,-84.28711,1.171593,0.6906853,26,0.0.0.0,10.137.250.93,1,0
2013-11-14 08:48:05.377,287,8.61,52.37598,4.918282,0,0,-1,9.5,5,1384415236,-0.4580536,0.05859375,-0.7481689,11.70229,-1.518825,-84,1.045724,0.5648164,26,0.0.0.0,10.137.250.93,1,0
2013-11-14 08:48:05.545,288,8.639999,52.37598,4.918282,0,0,-1,11.00847,10,1384415237,-0.4580536,0.05859375,-0.7481689,12.30815,-1.683355,-82.79414,1.007409,0.5265011,26,0.0.0.0,10.137.250.93,1,0
2013-11-14 08:48:05.670,289,8.67,52.37598,4.918282,0,0,-1,11.00847,10,1384415237,-0.5258484,0.008163452,-0.8544312,11.64721,-2.012414,-80.61211,0.8794223,0.3985147,26,0.0.0.0,10.137.250.93,1,0
2013-11-14 08:48:05.913,290,8.7,52.37598,4.918282,0,0,-1,11.00847,10,1384415237,-0.5258484,0.008163452,-0.8544312,11.4269,-2.560848,-80.72694,0.7429911,0.2620834,26,0.0.0.0,10.137.250.93,1,0
2013-11-14 08:48:06.044,291,8.73,52.37598,4.918282,0,0,-1,11.00847,10,1384415237,-0.6152039,0.106842,-0.7275085,12.03276,-2.506008,-80.66953,359.5869,359.106,26,0.0.0.0,10.137.250.93,1,0
2013-11-14 08:48:06.145,292,8.76,52.37598,4.918282,0,0,-1,11.00847,10,1384415237,-0.4450378,0.1224518,-0.7901764,14.78666,-3.164126,-82.62187,0.005138576,359.5242,26,0.0.0.0,10.137.250.93,1,0
2013-11-14 08:48:06.241,293,8.79,52.37598,4.918282,0,0,-1,11.00847,10,1384415237,-0.3975067,0.08610535,-0.8161774,14.9519,-2.560851,-82.4496,0.2675287,359.7866,26,0.0.0.0,10.137.250.93,1,0
2013-11-14 08:48:06.375,294,8.82,52.37598,4.918282,0,0,-1,11.00847,10,1384415237,-0.5146942,0.09342957,-0.8010864,16.05346,-3.218975,-82.56445,0.8100111,0.3291036,26,0.0.0.0,10.137.250.93,1,0
2013-11-14 08:48:06.495,295,8.849999,52.37598,4.918282,0,0,-1,11.00847,10,1384415237,-0.5070496,0.08761597,-0.7805634,14.73158,-3.218975,-82.4496,357.5881,357.1072,26,0.0.0.0,10.137.250.93,1,0
2013-11-14 08:48:06.614,296,8.88,52.37598,4.918282,0,0,-1,11.00847,10,1384415237,-0.3057709,0.02648926,-0.8292847,14.1808,-2.670537,-81.99023,357.4402,356.9593,26,0.0.0.0,10.137.250.93,1,0
2013-11-14 08:48:06.700,297,8.91,52.37598,4.918282,0,0,-1,11.00847,10,1384415237,-0.1808777,-0.1249237,-0.9851532,13.96049,-3.218972,-81.30116,358.3869,357.906,26,0.0.0.0,10.137.250.93,1,0
2013-11-14 08:48:06.911,298,8.94,52.37598,4.918282,0,0,-1,11.00847,10,1384415237,-0.1508636,-0.1910248,-0.9858246,14.29096,-3.328658,-80.49727,358.5977,358.1168,26,0.0.0.0,10.137.250.93,1,0
2013-11-14 08:48:07.027,299,8.97,52.37598,4.918282,0,0,-1,11.00847,10,1384415237,-0.1508636,-0.1910248,-0.9858246,15.9433,-4.096471,-79.92305,358.6683,358.1874,26,0.0.0.0,10.137.250.93,1,0
2013-11-14 08:48:07.165,300,9,52.37598,4.918282,0,0,-1,11.00847,10,1384415237,-0.1737061,-0.2522125,-0.8874207,16.43901,-3.383507,-79.75078,358.9856,358.5047,26,0.0.0.0,10.137.250.93,1,0
2013-11-14 08:48:07.285,301,9.03,52.37598,4.918282,0,0,-1,11.00847,10,1384415237,-0.00743103,-0.343811,-1.031601,15.61283,-3.438348,-80.03789,0.7719843,0.2910767,26,0.0.0.0,10.137.250.93,1,0
2013-11-14 08:48:07.406,302,9.059999,52.37598,4.918282,0,0,-1,11.00847,10,1384415237,0.07287598,-0.3443451,-1.1306,15.77807,-3.822253,-81.24374,2.308285,1.827377,26,0.0.0.0,10.137.250.93,1,0
2013-11-14 08:48:07.536,303,9.09,52.37598,4.918282,0,0,-1,11.00847,10,1384415237,-0.2163086,-0.2582397,-1.107605,16.05346,-3.767412,-81.76054,2.849239,2.368331,26,0.0.0.0,10.137.250.93,1,0
2013-11-14 08:48:07.656,304,9.12,52.37598,4.918282,0,0,-1,11.00847,10,1384415237,-0.4577026,-0.1297607,-0.9394836,15.66791,-4.041628,-81.12891,3.348401,2.867493,26,0.0.0.0,10.137.250.93,1,0
2013-11-14 08:48:07.895,305,9.15,52.37598,4.918282,0,0,-1,9.5,5,1384415239,-0.2050476,-0.1564178,-0.95401,16.05346,-3.877096,-80.15273,2.920002,2.439094,26,0.0.0.0,10.137.250.93,1,0
2013-11-14 08:48:08.071,306,9.179999,52.37598,4.918282,0,0,-1,9.5,5,1384415239,-0.2282715,-0.1802979,-1.161407,17.04486,-4.096471,-79.57851,2.935387,2.454479,26,0.0.0.0,10.137.250.93,1,0
2013-11-14 08:48:08.222,307,9.21,52.37598,4.918282,0,0,-1,9.5,5,1384415239,-0.2282715,-0.1802979,-1.161407,16.21869,-3.273812,-80.09531,2.931805,2.450897,26,0.0.0.0,10.137.250.93,1,0
2013-11-14 08:48:08.326,308,9.24,52.37598,4.918282,0,0,-1,9.5,5,1384415239,-0.4512787,-0.09672546,-1.055405,15.72299,-3.65772,-81.53085,2.908519,2.427611,26,0.0.0.0,10.137.250.93,1,0
2013-11-14 08:48:08.487,309,9.27,52.37598,4.918282,0,0,-1,9.5,5,1384415239,-0.6801605,-0.03598022,-1.000946,15.22729,-3.493194,-81.24374,2.851323,2.370416,26,0.0.0.0,10.137.250.93,1,0
2013-11-14 08:48:08.616,310,9.3,52.37598,4.918282,0,0,-1,9.5,5,1384415239,-0.5058441,-0.06510925,-0.9203796,14.56635,-4.809442,-81.12891,2.8015,2.320592,26,0.0.0.0,10.137.250.93,1,0
2013-11-14 08:48:08.726,311,9.33,52.37598,4.918282,0,0,-1,9.5,5,1384415239,-0.1582031,-0.1633759,-0.9732666,15.39252,-4.97397,-80.15273,3.201573,2.720665,26,0.0.0.0,10.137.250.93,1,0
2013-11-14 08:48:08.957,312,9.36,52.37598,4.918282,0,0,-1,9.5,5,1384415239,-0.1338806,-0.1508484,-1.156235,18.64213,-5.357879,-77.33907,5.624042,5.143135,26,0.0.0.0,10.137.250.93,1,0
2013-11-14 08:48:09.102,313,9.389999,52.37598,4.918282,0,0,-1,9.5,5,1384415239,-0.3302765,-0.1069794,-0.8416901,18.75229,-5.577254,-76.87968,5.2864,4.805492,26,0.0.0.0,10.137.250.93,1,0
2013-11-14 08:48:09.265,314,9.42,52.37598,4.918282,0,0,-1,9.5,5,1384415239,-0.4180603,-0.06832886,-0.7593842,18.53197,-5.796627,-76.87968,4.740919,4.260011,26,0.0.0.0,10.137.250.93,1,0
2013-11-14 08:48:09.377,315,9.45,52.37598,4.918282,0,0,-1,9.5,5,1384415239,-0.2897034,-0.06504822,-0.9789276,17.32026,-4.151315,-78.02812,2.866573,2.385665,26,0.0.0.0,10.137.250.93,1,0
2013-11-14 08:48:09.511,316,9.48,52.37598,4.918282,0.6365204,0,-1,9.5,5,1384415239,-0.1992035,-0.155838,-0.9851532,16.76947,-4.151315,-78.14296,3.013802,2.532895,26,0.0.0.0,10.137.250.93,1,0
2013-11-14 08:48:09.653,317,9.51,52.37598,4.918282,0.6365204,0,-1,9.5,5,1384415239,-0.1992035,-0.155838,-0.9851532,16.27377,-4.97397,-78.77461,3.289855,2.808948,26,0.0.0.0,10.137.250.93,1,0
2013-11-14 08:48:09.740,318,9.54,52.37598,4.918282,0.6365204,0,-1,9.5,5,1384415239,-0.2267761,-0.136673,-0.8723602,15.77807,-4.590066,-78.25781,2.781832,2.300924,26,0.0.0.0,10.137.250.93,1,0
2013-11-14 08:48:09.938,319,9.57,52.37598,4.918282,0.6365204,0,-1,9.5,5,1384415239,-0.4165802,-0.08145142,-1.020264,15.83315,-4.315847,-79.57851,2.60273,2.121822,26,0.0.0.0,10.137.250.93,1,0
2013-11-14 08:48:10.056,320,9.599999,52.37598,4.918282,0.6365204,0,-1,9.5,5,1384415239,-0.4236145,-0.1179504,-0.9637451,15.77807,-4.151315,-78.60234,2.370991,1.890084,26,0.0.0.0,10.137.250.93,1,0
2013-11-14 08:48:10.157,321,9.63,52.37598,4.918282,0.6365204,0,-1,9.5,5,1384415239,-0.2005768,-0.1838989,-0.9587708,16.16362,-3.65772,-78.20039,2.280641,1.799733,26,0.0.0.0,10.137.250.93,1,0
2013-11-14 08:48:10.297,322,9.66,52.37598,4.918282,0.6365204,0,-1,9.5,5,1384415239,-0.1747742,-0.1846771,-0.9888611,16.16362,-4.096471,-78.54492,2.194835,1.713927,26,0.0.0.0,10.137.250.93,1,0
2013-11-14 08:48:10.401,323,9.69,52.37598,4.918282,0.6365204,0,-1,9.5,5,1384415239,-0.280426,-0.1282959,-1.037125,16.16362,-4.096468,-78.65976,1.997383,1.516475,26,0.0.0.0,10.137.250.93,1,0
2013-11-14 08:48:10.495,324,9.719999,52.37598,4.918282,0.6365204,0,-1,9.5,5,1384415239,-0.280426,-0.1282959,-1.037125,15.99838,-4.37069,-79.2914,1.940368,1.45946,26,0.0.0.0,10.137.250.93,1,0
2013-11-14 08:48:10.591,325,9.75,52.37598,4.918282,0.6365204,0,-1,9.5,5,1384415239,-0.505722,-0.04100037,-1.065491,15.83315,-3.986785,-78.88945,1.915248,1.43434,26,0.0.0.0,10.137.250.93,1,0
2013-11-14 08:48:10.693,326,9.78,52.37598,4.918282,3.931534,0,-1,9.5,5,1384415240,-0.5204926,-0.03320312,-0.9906158,16.16362,-3.218972,-79.00429,1.891634,1.410726,26,0.0.0.0,10.137.250.93,1,0
2013-11-14 08:48:10.905,327,9.809999,52.37598,4.918282,3.931534,0,-1,9.5,5,1384415240,-0.1639252,-0.1268616,-0.7270813,16.27377,-3.438344,-79.00429,1.832686,1.351778,26,0.0.0.0,10.137.250.93,1,0
2013-11-14 08:48:11.020,328,9.84,52.37598,4.918282,3.931534,0,-1,9.5,5,1384415240,-0.2082214,-0.09590149,-0.9707336,15.9433,-3.877096,-79.23398,1.814335,1.333427,26,0.0.0.0,10.137.250.93,1,0
2013-11-14 08:48:11.129,329,9.87,52.37598,4.918282,3.931534,0,-1,9.5,5,1384415240,-0.4443512,-0.03015137,-1.026352,15.28236,-4.42553,-78.88945,1.796082,1.315175,26,0.0.0.0,10.137.250.93,1,0
2013-11-14 08:48:11.227,330,9.9,52.37598,4.918282,3.931534,0,-1,9.5,5,1384415240,-0.4618378,0.08856201,-0.9020844,15.11713,-4.260998,-78.94687,1.778175,1.297267,26,0.0.0.0,10.137.250.93,1,0
2013-11-14 08:48:11.352,331,9.929999,52.37598,4.918282,3.931534,0,-1,9.5,5,1384415240,-0.2980957,-0.02412415,-1.010208,15.72299,-4.206161,-79.11914,1.732191,1.251283,26,0.0.0.0,10.137.250.93,1,0
2013-11-14 08:48:11.445,332,9.96,52.37598,4.918282,3.931534,0,-1,9.5,5,1384415240,-0.2811279,-0.1530609,-0.9659882,15.50268,-4.096471,-79.92305,1.706643,1.225735,26,0.0.0.0,10.137.250.93,1,0
2013-11-14 08:48:11.555,333,9.99,52.37598,4.918282,3.931534,0,-1,9.5,5,1384415240,-0.5398102,0.1450958,-0.7633362,15.00697,-3.822249,-79.75078,1.690304,1.209396,26,0.0.0.0,10.137.250.93,1,0
2013-11-14 08:48:11.657,334,10.02,52.37598,4.918282,3.931534,0,-1,9.5,5,1384415240,-0.2948914,0.1227264,-1.189713,15.28236,-4.315847,-79.57851,1.67441,1.193502,26,0.0.0.0,10.137.250.93,1,0
2013-11-14 08:48:11.884,335,10.05,52.37598,4.918282,3.931534,0,-1,9.5,5,1384415240,-0.2501678,0.1787109,-0.841156,15.17221,-3.657723,-79.46367,1.594906,1.113998,26,0.0.0.0,10.137.250.93,1,0
2013-11-14 08:48:11.978,336,10.08,52.37598,4.91829,5.033543,0.279705,-1,9.5,5,1384415241,-0.5547028,0.1970673,-0.8842468,15.39252,-3.548031,-79.00429,1.514401,1.033494,26,0.0.0.0,10.137.250.93,1,0
2013-11-14 08:48:12.094,337,10.11,52.37598,4.91829,5.033543,0.279705,-1,9.5,5,1384415241,-0.379425,0.03994751,-0.800415,15.4476,-3.383501,-79.2914,1.492924,1.012016,26,0.0.0.0,10.137.250.93,1,0
2013-11-14 08:48:12.212,338,10.14,52.37598,4.91829,5.033543,0.279705,-1,9.5,5,1384415241,-0.379425,0.03994751,-0.800415,15.33744,-3.712563,-78.71718,1.471461,0.990553,26,0.0.0.0,10.137.250.93,1,0
2013-11-14 08:48:12.334,339,10.17,52.37598,4.91829,5.033543,0.279705,-1,9.5,5,1384415241,-0.4541626,0.00793457,-0.7207794,15.83315,-3.986782,-79.34883,1.429253,0.948345,26,0.0.0.0,10.137.250.93,1,0
2013-11-14 08:48:12.420,340,10.2,52.37598,4.91829,5.033543,0.279705,-1,9.5,5,1384415241,-0.4392548,-0.1188354,-0.6590576,15.28236,-3.767409,-79.11914,1.40813,0.927222,26,0.0.0.0,10.137.250.93,1,0
2013-11-14 08:48:12.540,341,10.23,52.37598,4.91829,5.033543,0.279705,-1,9.5,5,1384415241,-0.4770355,-0.2510681,-1.10379,15.50268,-2.670537,-79.11914,1.334472,0.8535648,26,0.0.0.0,10.137.250.93,1,0
2013-11-14 08:48:12.645,342,10.26,52.37598,4.91829,5.033543,0.279705,-1,9.5,5,1384415241,-0.4506683,-0.1912842,-1.136932,15.39252,-2.670537,-79.23398,1.313584,0.8326764,26,0.0.0.0,10.137.250.93,1,0
2013-11-14 08:48:12.810,343,10.29,52.37598,4.91829,5.033543,0.279705,-1,9.5,5,1384415241,-0.3941498,-0.2241058,-0.8582001,14.40112,-3.657723,-79.00429,1.252696,0.7717881,26,0.0.0.0,10.137.250.93,1,0
2013-11-14 08:48:12.973,344,10.32,52.37598,4.91829,5.033543,0.279705,-1,9.5,5,1384415241,-0.4781647,-0.3217468,-0.9244537,14.34604,-3.273818,-78.60234,1.222337,0.7414299,26,0.0.0.0,10.137.250.93,1,0
2013-11-14 08:48:13.107,345,10.35,52.37598,4.91829,5.033543,0.279705,-1,9.5,5,1384415241,-0.7454224,-0.4343414,-0.7762451,15.06205,-3.438351,-78.31523,1.202868,0.7219601,26,0.0.0.0,10.137.250.93,1,0
2013-11-14 08:48:13.237,346,10.38,52.37598,4.91829,5.033543,0.279705,-1,9.5,5,1384415241,-0.7454224,-0.4343414,-0.7762451,15.55775,-4.261003,-78.37265,1.174268,0.6933605,26,0.0.0.0,10.137.250.93,1,0
2013-11-14 08:48:13.329,347,10.41,52.37598,4.91829,5.033543,0.279705,-1,9.5,5,1384415241,-0.5067902,-0.315506,-0.5108185,15.17221,-3.65772,-78.54492,1.157375,0.6764676,26,0.0.0.0,10.137.250.93,1,0
2013-11-14 08:48:13.421,348,10.44,52.37598,4.91829,5.033543,0.279705,-1,9.5,5,1384415241,-0.2651825,-0.4145508,-0.6683044,15.06205,-3.65772,-78.65976,1.134138,0.6532308,26,0.0.0.0,10.137.250.93,1,0
2013-11-14 08:48:13.534,349,10.47,52.37598,4.91829,5.258339,0,-1,9.5,5,1384415242,-0.789978,-0.4701538,-0.837677,14.89682,-3.383504,-78.37265,1.127007,0.6460991,26,0.0.0.0,10.137.250.93,1,0
2013-11-14 08:48:13.665,350,10.5,52.37598,4.91829,5.258339,0,-1,9.5,5,1384415242,-0.7572174,-0.46138,-0.7684479,15.77807,-2.835064,-78.83203,1.08794,0.6070319,26,0.0.0.0,10.137.250.93,1,0
2013-11-14 08:48:13.948,351,10.53,52.37598,4.91829,5.258339,0,-1,9.5,5,1384415242,-0.2743225,-0.4814758,-0.6302032,16.10854,-2.94475,-79.40625,1.046583,0.565675,26,0.0.0.0,10.137.250.93,1,0
2013-11-14 08:48:14.054,352,10.56,52.37598,4.91829,5.258339,0,-1,9.5,5,1384415242,-0.4985657,-0.5821228,-0.7982788,15.83315,-3.218972,-79.11914,1.020394,0.5394863,26,0.0.0.0,10.137.250.93,1,0
2013-11-14 08:48:14.176,353,10.59,52.37598,4.91829,5.258339,0,-1,9.5,5,1384415242,-0.5072632,-0.575119,-0.8002625,15.61283,-3.438348,-79.00429,0.992438,0.5115303,26,0.0.0.0,10.137.250.93,1,0
2013-11-14 08:48:14.288,354,10.62,52.37598,4.91829,5.258339,0,-1,9.5,5,1384415242,-0.4147797,-0.5008087,-0.8088684,15.50268,-3.767409,-78.77461,0.9652018,0.4842942,26,0.0.0.0,10.137.250.93,1,0
2013-11-14 08:48:14.395,355,10.65,52.37598,4.91829,5.258339,0,-1,9.5,5,1384415242,-0.2981262,-0.5332031,-0.7849426,15.83315,-3.328658,-78.88945,0.900082,0.4191744,26,0.0.0.0,10.137.250.93,1,0
2013-11-14 08:48:14.508,356,10.68,52.37598,4.91829,5.258339,0,-1,9.5,5,1384415242,-0.3522034,-0.5838165,-0.7733612,15.11713,-3.602877,-78.60234,0.8577867,0.3768791,26,0.0.0.0,10.137.250.93,1,0
2013-11-14 08:48:14.609,357,10.71,52.37598,4.91829,5.258339,0,-1,9.5,5,1384415242,-0.3960266,-0.5603638,-0.8699646,14.9519,-2.999596,-79.23398,0.8297995,0.3488919,26,0.0.0.0,10.137.250.93,1,0
2013-11-14 08:48:14.728,358,10.74,52.37598,4.91829,5.258339,0,-1,9.5,5,1384415242,-0.120697,-0.4750671,-0.7736969,15.28236,-3.65772,-79.57851,0.788444,0.3075365,26,0.0.0.0,10.137.250.93,1,0
2013-11-14 08:48:14.928,359,10.77,52.37598,4.91829,5.258339,0,-1,9.5,5,1384415242,-0.3485565,-0.5314026,-0.3694458,15.17221,-3.328661,-79.00429,0.7344635,0.2535558,26,0.0.0.0,10.137.250.93,1,0
2013-11-14 08:48:15.041,360,10.8,52.37598,4.91829,5.258339,0,-1,9.5,5,1384415242,-0.3485565,-0.5314026,-0.3694458,15.50268,-2.889913,-80.03789,0.7079552,0.2270476,26,0.0.0.0,10.137.250.93,1,0
2013-11-14 08:48:15.143,361,10.83,52.37598,4.91829,5.258339,0,-1,9.5,5,1384415242,-0.1986542,-0.643631,-0.7823334,16.16362,-2.999596,-82.79414,0.6693439,0.1884363,26,0.0.0.0,10.137.250.93,1,0
2013-11-14 08:48:15.279,362,10.86,52.37598,4.91829,4.898373,0,-1,9.5,5,1384415243,-0.07598877,-0.6468811,-0.7633514,14.62143,-3.548037,-82.4496,0.6218279,0.1409203,26,0.0.0.0,10.137.250.93,1,0
2013-11-14 08:48:15.375,363,10.89,52.37598,4.91829,4.898373,0,-1,9.5,5,1384415243,-0.0526123,-0.8072205,-0.7190399,15.33744,-3.054442,-82.62187,0.5890555,0.1081479,26,0.0.0.0,10.137.250.93,1,0
2013-11-14 08:48:15.502,364,10.92,52.37598,4.91829,4.898373,0,-1,9.5,5,1384415243,-0.04743958,-0.7875977,-0.6985931,15.00697,-3.05444,-82.04765,359.7008,359.2199,26,0.0.0.0,10.137.250.93,1,0
2013-11-14 08:48:15.577,365,10.95,52.37598,4.91829,4.898373,0,-1,9.5,5,1384415243,0.1230469,-0.8269806,-0.570282,15.11713,-3.273812,-81.01405,359.3623,358.8814,26,0.0.0.0,10.137.250.93,1,0
2013-11-14 08:48:15.701,366,10.98,52.37598,4.91829,4.898373,0,-1,9.5,5,1384415243,0.1428833,-0.8205719,-0.5741272,15.66791,-3.383501,-79.2914,359.5365,359.0556,26,0.0.0.0,10.137.250.93,1,0
2013-11-14 08:48:16.061,367,11.01,52.37598,4.91829,4.898373,0,-1,9.5,5,1384415243,0.2894592,-0.9105377,-0.364975,14.9519,-2.451162,-79.00429,359.5942,359.1133,26,0.0.0.0,10.137.250.93,1,0
2013-11-14 08:48:16.445,368,11.04,52.37598,4.91829,4.898373,0,-1,9.5,5,1384415243,0.2894592,-0.9105377,-0.364975,15.99838,-2.615694,-80.09531,359.5927,359.1118,26,0.0.0.0,10.137.250.93,1,0
2013-11-14 08:48:16.582,369,11.07,52.37598,4.91829,4.898373,0,-1,9.5,5,1384415243,-0.05224609,-0.7892761,-0.68013,15.06205,-3.328658,-80.15273,359.5877,359.1068,26,0.0.0.0,10.137.250.93,1,0
2013-11-14 08:48:16.674,370,11.1,52.37598,4.91829,4.898373,0,-1,9.5,5,1384415243,-0.05635071,-0.7820282,-0.8592987,14.84174,-3.109286,-79.69336,359.5787,359.0978,26,0.0.0.0,10.137.250.93,1,0
2013-11-14 08:48:16.898,371,11.13,52.37598,4.91829,4.898373,0,-1,9.5,5,1384415243,0.1620941,-0.9426727,-0.8512115,14.78666,-2.94475,-80.21016,359.5768,359.0959,26,0.0.0.0,10.137.250.93,1,0
2013-11-14 08:48:17.016,372,11.16,52.37598,4.91829,4.369045,0,-1,9.5,5,1384415244,0.1286316,-0.9128265,-0.5418091,15.22729,-3.931939,-80.89922,359.577,359.0961,26,0.0.0.0,10.137.250.93,1,0
2013-11-14 08:48:17.107,373,11.19,52.37598,4.91829,4.369045,0,-1,9.5,5,1384415244,-0.1512299,-0.8890686,-0.582901,14.62143,-4.096471,-80.49727,359.5776,359.0967,26,0.0.0.0,10.137.250.93,1,0
2013-11-14 08:48:17.240,374,11.22,52.37598,4.91829,4.369045,0,-1,9.5,5,1384415244,-0.04345703,-0.9048462,-0.5785217,14.89682,-3.273815,-79.75078,359.5779,359.097,26,0.0.0.0,10.137.250.93,1,0
2013-11-14 08:48:17.338,375,11.25,52.37598,4.91829,4.369045,0,-1,9.5,5,1384415244,0.05155945,-0.9317627,-0.6442871,15.22729,-2.506002,-79.2914,359.5771,359.0963,26,0.0.0.0,10.137.250.93,1,0
2013-11-14 08:48:17.443,376,11.28,52.37598,4.91829,4.369045,0,-1,9.5,5,1384415244,-0.1149597,-0.8162537,-0.5566406,15.55775,-2.176943,-79.86562,359.5751,359.0942,26,0.0.0.0,10.137.250.93,1,0
2013-11-14 08:48:17.584,377,11.31,52.37598,4.91829,4.369045,0,-1,9.5,5,1384415244,-0.246582,-0.7242737,-0.5058136,15.66791,-2.615694,-80.21016,359.5713,359.0904,26,0.0.0.0,10.137.250.93,1,0
2013-11-14 08:48:17.676,378,11.34,52.37598,4.91829,4.369045,0,-1,9.5,5,1384415244,-0.4881592,-0.54776,-0.3231964,15.00697,-3.931939,-79.86562,357.9648,357.4839,26,0.0.0.0,10.137.250.93,1,0
2013-11-14 08:48:17.900,379,11.37,52.37598,4.91829,4.369045,0,-1,9.5,5,1384415244,-0.3862915,-0.796463,-0.5869751,13.24447,-1.628509,-81.12891,347.0821,346.6012,26,0.0.0.0,10.137.250.93,1,0
2013-11-14 08:48:17.977,380,11.4,52.37598,4.91829,4.369045,0,-1,9.5,5,1384415244,-0.297287,-0.8665619,-0.5757294,13.90541,-1.628512,-81.24374,341.27,340.7891,26,0.0.0.0,10.137.250.93,1,0
2013-11-14 08:48:18.110,381,11.43,52.37598,4.91829,4.369045,0,-1,9.5,5,1384415244,-0.197876,-0.9077759,-0.4827423,13.29955,-1.134917,-83.25351,339.5527,339.0718,26,0.0.0.0,10.137.250.93,1,0
2013-11-14 08:48:18.199,382,11.46,52.37598,4.91829,4.209892,0,-1,9.5,5,1384415245,-0.1163025,-0.908844,-0.6401367,13.1894,-0.9155387,-83.25351,337.9257,337.4448,26,0.0.0.0,10.137.250.93,1,0
2013-11-14 08:48:18.286,383,11.49,52.37598,4.91829,4.209892,0,-1,9.5,5,1384415245,-0.3282013,-0.9425659,-0.5113983,13.90541,-0.3122611,-82.62187,335.4171,334.9362,26,0.0.0.0,10.137.250.93,1,0
2013-11-14 08:48:18.389,384,11.52,52.37598,4.91829,4.209892,0,-1,9.5,5,1384415245,-0.07794189,-0.6804962,-0.3757629,13.63002,-0.5864799,-83.4832,334.5803,334.0994,26,0.0.0.0,10.137.250.93,1,0
2013-11-14 08:48:18.494,385,11.55,52.37598,4.91829,4.209892,0,-1,9.5,5,1384415245,-0.07794189,-0.6804962,-0.3757629,13.1894,-0.9155418,-82.90898,334.0519,333.571,26,0.0.0.0,10.137.250.93,1,0
2013-11-14 08:48:18.595,386,11.58,52.37598,4.91829,4.209892,0,-1,9.5,5,1384415245,-0.306427,-0.7979584,-0.5769196,12.85893,0.4007058,-84.74648,333.3689,332.888,26,0.0.0.0,10.137.250.93,1,0
2013-11-14 08:48:18.690,387,11.61,52.37598,4.91829,4.209892,0,-1,9.5,5,1384415245,-0.2691803,-0.6430206,-0.5440826,13.46479,-0.4219474,-86.87109,312.7989,312.318,25,0.0.0.0,10.137.250.93,1,0
2013-11-14 08:48:18.892,388,11.64,52.37598,4.91829,4.209892,0,-1,9.5,5,1384415245,-0.3186798,-0.7980804,-0.1797485,13.35463,-0.09288859,-86.6414,313.3637,312.8828,25,0.0.0.0,10.137.250.93,1,0
2013-11-14 08:48:19.021,389,11.67,52.37598,4.91829,4.209892,0,-1,9.5,5,1384415245,-0.3020782,-1.037506,0.07502747,12.80385,-1.299447,-87.44531,314.6671,314.1862,25,0.0.0.0,10.137.250.93,1,0
2013-11-14 08:48:19.105,390,11.7,52.37598,4.91829,4.209892,0,-1,9.5,5,1384415245,-0.2603912,-0.9716187,-0.00579834,12.80385,-1.628512,-87.44531,314.4682,313.9873,25,0.0.0.0,10.137.250.93,1,0
2013-11-14 08:48:19.229,391,11.73,52.37598,4.91829,4.209892,0,-1,9.5,5,1384415245,-0.2603912,-0.9716187,-0.00579834,13.40971,-0.6961722,-88.07695,314.1144,313.6335,25,0.0.0.0,10.137.250.93,1,0
2013-11-14 08:48:19.326,392,11.76,52.37598,4.91829,4.209892,0,-1,9.5,5,1384415245,-0.4907379,-0.743576,-0.04231262,13.07924,0.1813271,-87.84726,313.4257,312.9448,25,0.0.0.0,10.137.250.93,1,0
2013-11-14 08:48:19.422,393,11.79,52.37598,4.91829,4.209892,0,-1,9.5,5,1384415245,-0.4229431,-0.7622528,-0.01182556,13.46479,0.1264839,-87.33046,311.2419,310.761,25,0.0.0.0,10.137.250.93,1,0
2013-11-14 08:48:19.529,394,11.82,52.37598,4.91829,5.069134,0,-1,9.5,5,1384415246,-0.4367828,-0.8888702,-0.105011,12.25307,1.113673,-88.24922,312.7706,312.2897,25,0.0.0.0,10.137.250.93,1,0
2013-11-14 08:48:19.643,395,11.85,52.37598,4.91829,5.069134,0,-1,9.5,5,1384415246,-0.611557,-0.9597015,-0.216507,12.19799,2.484766,-90.0293,312.605,312.1241,25,0.0.0.0,10.137.250.93,1,0
2013-11-14 08:48:19.762,396,11.88,52.37598,4.91829,5.069134,0,-1,9.5,5,1384415246,-0.6721649,-0.8759003,-0.2685547,12.63861,0.5103922,-89.45508,312.6366,312.1557,25,0.0.0.0,10.137.250.93,1,0
2013-11-14 08:48:19.946,397,11.91,52.37598,4.91829,5.069134,0,-1,9.5,5,1384415246,-0.5482178,-0.7901917,-0.1378326,12.03276,0.8942971,-88.82344,314.0093,313.5284,25,0.0.0.0,10.137.250.93,1,0
2013-11-14 08:48:20.085,398,11.94,52.37598,4.91829,5.069134,0,-1,9.5,5,1384415246,-0.3825226,-0.7368469,-0.03413391,12.58354,0.2361734,-89.16797,313.6467,313.1658,25,0.0.0.0,10.137.250.93,1,0
2013-11-14 08:48:20.244,399,11.97,52.37598,4.91829,5.069134,0,-1,9.5,5,1384415246,-0.300354,-0.9474335,-0.1218567,12.85893,1.05883,-90.25899,313.5245,313.0436,25,0.0.0.0,10.137.250.93,1,0
2013-11-14 08:48:20.495,400,12,52.37598,4.91829,5.069134,0,-1,9.5,5,1384415246,-0.300354,-0.9474335,-0.1218567,12.25307,1.003986,-91.12032,313.2979,312.817,25,0.0.0.0,10.137.250.93,1,0
2013-11-14 08:48:20.727,401,12.03,52.37598,4.91829,5.069134,0,-1,9.5,5,1384415246,-0.4527588,-0.8263702,-0.03805542,12.25307,0.455549,-91.80937,312.824,312.3431,25,0.0.0.0,10.137.250.93,1,0
2013-11-14 08:48:20.920,402,12.06,52.37598,4.91829,5.069134,0,-1,9.5,5,1384415246,-0.4527588,-0.8263702,-0.03805542,11.97768,0.4007058,-91.75195,312.5612,312.0804,25,0.0.0.0,10.137.250.93,1,0
2013-11-14 08:48:21.019,403,12.09,52.37598,4.91829,5.069134,0,-1,9.5,5,1384415246,-0.4444733,-0.9110413,0.02154541,12.36322,1.223362,-92.95781,312.4984,312.0175,25,0.0.0.0,10.137.250.93,1,0
2013-11-14 08:48:21.126,404,12.12,52.37598,4.91829,5.069134,0,-1,9.5,5,1384415246,-0.4666748,-0.8978424,0.02630615,11.4269,1.607267,-93.93398,312.4832,312.0023,25,0.0.0.0,10.137.250.93,1,0
2013-11-14 08:48:21.383,405,12.15,52.37598,4.91829,2.74184,0,-1,9.5,5,1384415247,-0.4111328,-0.7912903,0.04475403,10.82104,1.991172,-94.10625,312.4576,311.9767,25,0.0.0.0,10.137.250.93,1,0
2013-11-14 08:48:21.567,406,12.18,52.37598,4.91829,2.74184,0,-1,9.5,5,1384415247,-0.3999176,-0.7855377,0.05839539,10.38041,3.08805,-95.8289,312.3731,311.8922,25,0.0.0.0,10.137.250.93,1,0
2013-11-14 08:48:21.672,407,12.21,52.37598,4.91829,2.74184,0,-1,9.5,5,1384415247,-0.3714294,-0.9541321,0.06382751,11.09643,3.25258,-96.23085,312.1982,311.7173,25,0.0.0.0,10.137.250.93,1,0
2013-11-14 08:48:21.905,408,12.24,52.37598,4.91829,2.74184,0,-1,9.5,5,1384415247,-0.3714294,-0.9541321,0.06382751,11.31674,3.14289,-96.11601,309.6706,309.1897,25,0.0.0.0,10.137.250.93,1,0
2013-11-14 08:48:22.019,409,12.27,52.37598,4.91829,2.74184,0,-1,9.5,5,1384415247,-0.3943787,-1.068283,0.03189087,10.27026,3.088044,-98.35547,310.2734,309.7925,25,0.0.0.0,10.137.250.93,1,0
2013-11-14 08:48:22.128,410,12.3,52.37598,4.91829,2.74184,0,-1,9.5,5,1384415247,-0.3526764,-0.9857025,0.07078552,9.994865,3.362266,-99.2168,309.5306,309.0497,25,0.0.0.0,10.137.250.93,1,0
2013-11-14 08:48:22.428,411,12.33,52.37598,4.91829,2.74184,0,-1,9.5,5,1384415247,-0.3374329,-0.8188477,0.07528687,10.10502,3.471955,-100.9395,308.8868,308.4059,25,0.0.0.0,10.137.250.93,1,0
2013-11-14 08:48:22.626,412,12.36,52.37598,4.91829,2.74184,0,-1,9.5,5,1384415247,-0.3913727,-0.7828522,0.04870605,10.1601,3.965549,-101.4563,308.849,308.3681,25,0.0.0.0,10.137.250.93,1,0
2013-11-14 08:48:22.728,413,12.39,52.37598,4.91829,2.74184,0,-1,9.5,5,1384415247,-0.4577789,-0.9154816,0.04000854,10.1601,3.19774,-101.5711,308.6836,308.2027,25,0.0.0.0,10.137.250.93,1,0
2013-11-14 08:48:23.353,414,12.42,52.37598,4.91829,2.74184,0,-1,9.5,5,1384415247,-0.3618011,-0.9479675,0.009338379,9.554241,2.594456,-105.3035,308.0989,307.618,25,0.0.0.0,10.137.250.93,1,0
2013-11-14 08:48:23.536,415,12.45,52.37598,4.91829,2.74184,0,-1,9.5,5,1384415247,-0.3000183,-1.007034,0.09733582,8.728069,3.197736,-104.4422,308.1556,307.6747,25,0.0.0.0,10.137.250.93,1,0
2013-11-14 08:48:24.022,416,12.48,52.37598,4.91829,2.74184,0,-1,9.5,5,1384415247,-0.328537,-1.09433,0.1091461,9.939785,5.062425,-106.2797,308.2846,307.8037,25,0.0.0.0,10.137.250.93,1,0
2013-11-14 08:48:24.591,417,12.51,52.37598,4.91829,0,0,-1,9.5,5,1384415248,-0.328537,-1.09433,0.1091461,9.058537,1.771796,-106.05,308.0415,307.5606,25,0.0.0.0,10.137.250.93,1,0
2013-11-14 08:48:24.974,418,12.54,52.37598,4.91829,0,0,-1,9.5,5,1384415248,-0.307312,-1.045776,0.01173401,9.22377,2.923518,-105.8777,308.0709,307.59,25,0.0.0.0,10.137.250.93,1,0
2013-11-14 08:48:25.300,419,12.57,52.37598,4.91829,0,0,-1,9.5,5,1384415248,-0.307312,-1.045776,0.01173401,10.32533,2.484769,-105.3035,307.4233,306.9424,25,0.0.0.0,10.137.250.93,1,0
2013-11-14 08:48:25.465,420,12.6,52.37598,4.91829,0,0,-1,9.5,5,1384415248,-0.3056946,-0.9910889,0.01257324,11.81244,1.113676,-105.8203,306.5111,306.0302,25,0.0.0.0,10.137.250.93,1,0
2013-11-14 08:48:25.594,421,12.63,52.37598,4.91829,0,0,-1,9.5,5,1384415248,-0.3143616,-0.993515,0.04856873,17.7058,0.6200814,-106.5668,306.1643,305.6834,25,0.0.0.0,10.137.250.93,1,0
2013-11-14 08:48:25.718,422,12.66,52.37598,4.91829,0,0,-1,9.5,5,1384415248,-0.3138123,-0.8563843,0.08618164,18.64213,-0.2025748,-105.1312,306.8553,306.3744,25,0.0.0.0,10.137.250.93,1,0
2013-11-14 08:48:25.958,423,12.69,52.37598,4.91829,0,0,-1,9.5,5,1384415248,-0.3665466,-0.9142761,0.05010986,19.79877,-2.670534,-99.90585,311.7583,311.2774,25,0.0.0.0,10.137.250.93,1,0
2013-11-14 08:48:26.235,424,12.72,52.37598,4.91829,0,0,-1,9.5,5,1384415248,-0.4021912,-0.9379578,0.05586243,20.7351,-3.712563,-94.56563,322.592,322.1111,25,0.0.0.0,10.137.250.93,1,0
2013-11-14 08:48:26.590,425,12.75,52.37598,4.91829,0,0,-1,9.5,5,1384415248,-0.4021912,-0.9379578,0.05586243,20.84525,-4.699755,-93.30234,355.915,355.4341,26,0.0.0.0,10.137.250.93,1,0
2013-11-14 08:48:26.700,426,12.78,52.37598,4.91829,0,0,-1,9.5,5,1384415248,-0.3186646,-0.9326935,0.06494141,20.95541,-5.577254,-92.1539,2.650953,2.170045,26,0.0.0.0,10.137.250.93,1,0
2013-11-14 08:48:26.948,427,12.81,52.37598,4.91829,0,0,-1,9.5,5,1384415249,0.1214905,-1.119293,0.1761932,21.78158,-5.85147,-91.52226,7.866417,7.385509,26,0.0.0.0,10.137.250.93,1,0
2013-11-14 08:48:27.067,428,12.84,52.37598,4.91829,0,0,-1,9.5,5,1384415249,-0.5148621,-0.9068451,0.005691528,22.22221,-5.522408,-91.6371,6.588704,6.107796,26,0.0.0.0,10.137.250.93,1,0
2013-11-14 08:48:27.168,429,12.87,52.37598,4.91829,0,0,-1,9.5,5,1384415249,-0.2822876,-0.9824219,0.04864502,20.68002,-5.412722,-92.09648,5.930349,5.449441,26,0.0.0.0,10.137.250.93,1,0
2013-11-14 08:48:27.252,430,12.9,52.37598,4.91829,0,0,-1,9.5,5,1384415249,-0.2950592,-0.8823547,0.06393433,20.95541,-5.028817,-91.80937,5.934683,5.453775,26,0.0.0.0,10.137.250.93,1,0
2013-11-14 08:48:27.353,431,12.93,52.37598,4.91829,0,0,-1,9.5,5,1384415249,-0.2855225,-0.9610138,0.03009033,21.67143,-4.864285,-90.71835,6.296412,5.815505,26,0.0.0.0,10.137.250.93,1,0
2013-11-14 08:48:27.457,432,12.96,52.37598,4.91829,0,0,-1,9.5,5,1384415249,-0.3000336,-0.999527,0.06323242,21.78158,-5.522411,-91.29257,8.97791,8.497003,26,0.0.0.0,10.137.250.93,1,0
2013-11-14 08:48:27.557,433,12.99,52.37598,4.91829,0,0,-1,9.5,5,1384415249,-0.2568817,-1.022552,0.09854126,22.0019,-6.290221,-91.52226,11.54663,11.06572,26,0.0.0.0,10.137.250.93,1,0
2013-11-14 08:48:27.680,434,13.02,52.37598,4.91829,0,0,-1,9.5,5,1384415249,-0.2568817,-1.022552,0.09854126,22.55268,-6.180532,-91.98164,12.84943,12.36852,26,0.0.0.0,10.137.250.93,1,0
2013-11-14 08:48:27.828,435,13.05,52.37598,4.91829,0,0,-1,9.5,5,1384415249,-0.227478,-1.010803,0.05673218,23.48901,-8.100063,-91.34999,320.41,319.9291,25,0.0.0.0,10.137.250.93,1,0
2013-11-14 08:48:27.951,436,13.08,52.37598,4.91829,0,0,-1,9.5,5,1384415249,-0.227478,-1.010803,0.05673218,23.04838,-6.893499,-92.72812,318.9554,318.4745,25,0.0.0.0,10.137.250.93,1,0
2013-11-14 08:48:28.099,437,13.11,52.37598,4.91829,0,0,-1,9.5,5,1384415249,-0.2880402,-1.10553,0.04116821,23.59916,-6.893502,-92.03906,319.6056,319.1247,25,0.0.0.0,10.137.250.93,1,0
2013-11-14 08:48:28.185,438,13.14,52.37598,4.91829,0,0,-1,11.21503,10,1384415250,-0.3098297,-0.9446106,0.06304932,23.7644,-6.948348,-92.21132,320.2405,319.7596,25,0.0.0.0,10.137.250.93,1,0
2013-11-14 08:48:28.296,439,13.17,52.37598,4.91829,0,0,-1,11.21503,10,1384415250,-0.3213806,-0.8908691,0.03755188,22.55268,-7.387096,-92.44101,320.8958,320.4149,25,0.0.0.0,10.137.250.93,1,0
2013-11-14 08:48:28.418,440,13.2,52.37598,4.91829,0,0,-1,11.21503,10,1384415250,-0.3096924,-0.9850311,0.02423096,22.60776,-7.112877,-91.69453,320.3113,319.8304,25,0.0.0.0,10.137.250.93,1,0
2013-11-14 08:48:28.525,441,13.23,52.37598,4.91829,0,0,-1,11.21503,10,1384415250,-0.28685,-1.03685,0.07215881,23.26869,-6.893502,-93.30234,319.2021,318.7212,25,0.0.0.0,10.137.250.93,1,0
2013-11-14 08:48:28.650,442,13.26,52.37598,4.91829,0,0,-1,11.21503,10,1384415250,-0.3123322,-0.792038,0.06945801,21.61635,-6.454754,-93.1875,319.2022,318.7213,25,0.0.0.0,10.137.250.93,1,0
2013-11-14 08:48:28.736,443,13.29,52.37598,4.91829,0,0,-1,11.21503,10,1384415250,-0.3178101,-0.844696,0.07055664,19.68861,-4.864282,-93.24492,321.9503,321.4694,25,0.0.0.0,10.137.250.93,1,0
2013-11-14 08:48:28.892,444,13.32,52.37598,4.91829,0,0,-1,11.21503,10,1384415250,-0.3178101,-0.844696,0.07055664,19.68861,-5.632092,-92.44101,318.4595,317.9786,25,0.0.0.0,10.137.250.93,1,0
2013-11-14 08:48:29.022,445,13.35,52.37598,4.91829,0,0,-1,11.21503,10,1384415250,-0.3742676,-0.9214325,0.1075439,17.98119,-4.590063,-93.87656,317.1346,316.6537,25,0.0.0.0,10.137.250.93,1,0
2013-11-14 08:48:29.089,446,13.38,52.37598,4.91829,0,0,-1,11.21503,10,1384415250,-0.3742676,-0.9214325,0.1075439,17.37533,-4.096468,-94.50819,313.9227,313.4418,25,0.0.0.0,10.137.250.93,1,0
2013-11-14 08:48:29.179,447,13.41,52.37598,4.91829,0,0,-1,11.21503,10,1384415250,-0.3126984,-0.9548035,0.1195374,17.43041,-3.383501,-95.48438,311.1579,310.677,25,0.0.0.0,10.137.250.93,1,0
2013-11-14 08:48:29.304,448,13.44,52.37598,4.91829,0,0,-1,9.5,5,1384415251,-0.3176117,-0.9441376,0.0980835,17.04486,-3.438348,-97.37929,285.7101,285.2292,26,0.0.0.0,10.137.250.93,1,0
2013-11-14 08:48:29.412,449,13.47,52.37598,4.91829,0,0,-1,9.5,5,1384415251,-0.3060455,-0.984787,0.0592804,15.88823,-1.518819,-101.6859,258.6397,258.1588,26,0.0.0.0,10.137.250.93,1,0
2013-11-14 08:48:29.510,450,13.5,52.37598,4.91829,0,0,-1,9.5,5,1384415251,-0.3146057,-1.035095,0.09735107,15.66791,-0.2025748,-107.6578,226.7131,226.2322,26,0.0.0.0,10.137.250.93,1,0
2013-11-14 08:48:29.604,451,13.53,52.37598,4.91829,0,0,-1,9.5,5,1384415251,-0.2221069,-1.076538,0.03941345,15.22729,0.455549,-109.2656,212.9886,212.5076,26,0.0.0.0,10.137.250.93,1,0
2013-11-14 08:48:29.706,452,13.56,52.37598,4.91829,0,0,-1,9.5,5,1384415251,-0.2221069,-1.076538,0.03941345,15.06205,1.497581,-112.309,199.4524,198.9715,26,0.0.0.0,10.137.250.93,1,0
2013-11-14 08:48:29.929,453,13.59,52.37598,4.91829,0,0,-1,9.5,5,1384415251,-0.3720856,-0.9388733,0.1299744,14.34604,3.19774,-120.0609,166.8035,166.3226,26,0.0.0.0,10.137.250.93,1,0
2013-11-14 08:48:30.046,454,13.62,52.37598,4.91829,0,0,-1,9.5,5,1384415251,-0.3855591,-0.8868866,0.1210175,14.40112,3.362269,-122.3004,147.622,147.1411,26,0.0.0.0,10.137.250.93,1,0
2013-11-14 08:48:30.123,455,13.65,52.37598,4.91829,0,0,-1,9.5,5,1384415251,-0.3623199,-0.8582306,0.09962463,13.79525,4.513987,-123.7359,141.5068,141.0259,26,0.0.0.0,10.137.250.93,1,0
2013-11-14 08:48:30.277,456,13.68,52.37598,4.91829,0,0,-1,9.5,5,1384415251,-0.3643036,-0.9122314,0.1747284,14.1808,4.67852,-122.8746,147.6677,147.1868,26,0.0.0.0,10.137.250.93,1,0
2013-11-14 08:48:30.359,457,13.71,52.37598,4.91829,0,0,-1,9.5,5,1384415251,-0.4705048,-0.8491974,0.2121124,14.07064,4.459144,-120.348,152.7443,152.2634,26,0.0.0.0,10.137.250.93,1,0
2013-11-14 08:48:30.462,458,13.74,52.37598,4.91829,0,0,-1,9.5,5,1384415251,-0.4581299,-0.8746185,0.1284943,14.73158,3.581642,-116.673,163.7833,163.3024,26,0.0.0.0,10.137.250.93,1,0
2013-11-14 08:48:30.560,459,13.77,52.37598,4.91829,0,0,-1,9.5,5,1384415252,-0.447937,-0.8724518,0.1752625,14.34604,3.526798,-115.6969,164.909,164.4281,26,0.0.0.0,10.137.250.93,1,0
2013-11-14 08:48:30.670,460,13.8,52.37598,4.91829,0,0,-1,9.5,5,1384415252,-0.447937,-0.8724518,0.1752625,14.12572,3.417109,-115.582,166.1691,165.6882,26,0.0.0.0,10.137.250.93,1,0
2013-11-14 08:48:30.812,461,13.83,52.37598,4.91829,0,0,-1,9.5,5,1384415252,-0.4604187,-0.865448,0.1664581,14.07064,3.362263,-116.3285,163.6633,163.1824,26,0.0.0.0,10.137.250.93,1,0
2013-11-14 08:48:30.937,462,13.86,52.37598,4.91829,0,0,-1,9.5,5,1384415252,-0.4604187,-0.865448,0.1664581,13.96049,3.362263,-117.7066,159.4563,158.9754,26,0.0.0.0,10.137.250.93,1,0
2013-11-14 08:48:31.044,463,13.89,52.37598,4.91829,0,0,-1,9.5,5,1384415252,-0.6086884,-0.6927338,0.1322937,13.13432,3.855857,-118.568,156.0267,155.5458,26,0.0.0.0,10.137.250.93,1,0
2013-11-14 08:48:31.142,464,13.92,52.37598,4.91829,0,0,-1,9.5,5,1384415252,-0.406662,-0.9627075,0.1192017,13.74018,4.239762,-119.7738,153.1136,152.6327,26,0.0.0.0,10.137.250.93,1,0
2013-11-14 08:48:31.252,465,13.95,52.37598,4.91829,0,0,-1,9.5,5,1384415252,-0.1798401,-1.228653,0.2785034,14.29096,3.910703,-120.9223,151.1643,150.6834,26,0.0.0.0,10.137.250.93,1,0
2013-11-14 08:48:31.354,466,13.98,52.37598,4.91829,0,0,-1,9.5,5,1384415252,-0.1357117,-0.9817963,0.2264404,13.63002,3.691331,-120.6926,154.143,153.6621,26,0.0.0.0,10.137.250.93,1,0
2013-11-14 08:48:31.495,467,14.01,52.37598,4.91829,0,0,-1,9.5,5,1384415252,-0.3527985,-0.9472046,0.114502,13.74018,3.362269,-119.659,155.0263,154.5454,26,0.0.0.0,10.137.250.93,1,0
2013-11-14 08:48:31.576,468,14.04,52.37598,4.91829,0,0,-1,9.5,5,1384415252,-0.4046173,-0.8500366,0.1559143,14.07064,3.362269,-119.659,155.7543,155.2734,26,0.0.0.0,10.137.250.93,1,0
2013-11-14 08:48:31.711,469,14.07,52.37598,4.91829,0,0,-1,9.5,5,1384415252,-0.3726654,-0.874176,0.1492767,13.40971,4.020393,-118.8551,154.983,154.5021,26,0.0.0.0,10.137.250.93,1,0
2013-11-14 08:48:31.917,470,14.1,52.37598,4.91829,0,0,-1,9.5,5,1384415253,-0.2540283,-1.054352,0.0440979,14.67651,4.184925,-119.8313,154.3069,153.826,26,0.0.0.0,10.137.250.93,1,0
2013-11-14 08:48:32.030,471,14.13,52.37598,4.91829,0,0,-1,9.5,5,1384415253,-0.2468719,-1.000381,0.08584595,13.79525,3.746174,-119.257,154.2615,153.7806,26,0.0.0.0,10.137.250.93,1,0
2013-11-14 08:48:32.131,472,14.16,52.37598,4.91829,0,0,-1,9.5,5,1384415253,-0.3804016,-0.9008942,0.3128815,13.6851,2.649299,-119.257,154.2829,153.802,26,0.0.0.0,10.137.250.93,1,0
2013-11-14 08:48:32.249,473,14.19,52.37598,4.91829,0,0,-1,9.5,5,1384415253,-0.3804016,-0.9008942,0.3128815,13.35463,3.417112,-118.7977,154.2973,153.8164,26,0.0.0.0,10.137.250.93,1,0
2013-11-14 08:48:32.329,474,14.22,52.37598,4.91829,0,0,-1,9.5,5,1384415253,-0.5198975,-0.7952423,0.5612946,13.6851,3.85586,-119.1422,154.3118,153.8309,26,0.0.0.0,10.137.250.93,1,0
2013-11-14 08:48:32.428,475,14.25,52.37598,4.91829,0,0,-1,9.5,5,1384415253,-0.5628357,-0.7343292,0.5015869,14.12572,3.636485,-119.6016,154.3179,153.837,26,0.0.0.0,10.137.250.93,1,0
2013-11-14 08:48:32.528,476,14.28,52.37598,4.91829,0,0,-1,9.5,5,1384415253,-0.5528412,-0.7082825,0.2678833,13.85033,3.362269,-118.9699,154.3256,153.8447,26,0.0.0.0,10.137.250.93,1,0
2013-11-14 08:48:32.638,477,14.31,52.37598,4.91829,0,0,-1,9.5,5,1384415253,-0.5226288,-0.7579041,0.1396332,12.96908,3.25258,-118.3957,154.3318,153.8508,26,0.0.0.0,10.137.250.93,1,0
2013-11-14 08:48:32.733,478,14.34,52.37598,4.91829,0,0,-1,9.5,5,1384415253,-0.4842682,-0.8517761,0.3289032,13.1894,4.020393,-119.3145,154.3372,153.8563,26,0.0.0.0,10.137.250.93,1,0
2013-11-14 08:48:32.835,479,14.37,52.37598,4.91829,0,0,-1,9.5,5,1384415253,-0.5845032,-0.688446,0.2287598,14.40112,3.142896,-118.5105,154.3404,153.8595,26,0.0.0.0,10.137.250.93,1,0
2013-11-14 08:48:32.963,480,14.4,52.37598,4.91829,0,0,-1,9.5,5,1384415253,-0.4681549,-0.852951,0.3435669,13.85033,3.471958,-118.5105,154.342,153.8611,26,0.0.0.0,10.137.250.93,1,0
2013-11-14 08:48:33.060,481,14.43,52.37598,4.91829,0,0,-1,9.5,5,1384415253,-0.3185425,-0.9676056,0.4203949,13.85033,3.691331,-118.5105,154.3422,153.8613,26,0.0.0.0,10.137.250.93,1,0
2013-11-14 08:48:33.155,482,14.46,52.37598,4.91829,0,0,-1,9.5,5,1384415253,-0.4560242,-0.7724304,0.4134979,13.57494,3.526798,-119.257,154.3419,153.861,26,0.0.0.0,10.137.250.93,1,0
2013-11-14 08:48:33.266,483,14.49,52.37598,4.91829,0,0,-1,9.5,5,1384415253,-0.4713135,-0.7271271,0.4181976,13.85033,3.581645,-119.5441,154.3427,153.8618,26,0.0.0.0,10.137.250.93,1,0
2013-11-14 08:48:33.361,484,14.52,52.37598,4.91829,0,0,-1,9.5,5,1384415253,-0.2539978,-1.001251,0.4100189,13.96049,4.349454,-118.7402,154.3442,153.8633,26,0.0.0.0,10.137.250.93,1,0
2013-11-14 08:48:33.503,485,14.55,52.37598,4.91829,0,0,-1,9.5,5,1384415253,-0.06442261,-1.171768,0.3401489,13.02416,4.294609,-118.3383,154.3456,153.8647,26,0.0.0.0,10.137.250.93,1,0
2013-11-14 08:48:33.598,486,14.58,52.37598,4.91829,0,0,-1,9.5,5,1384415254,-0.2590485,-0.9790192,0.1538849,12.52846,3.910707,-118.7402,154.3488,153.8679,26,0.0.0.0,10.137.250.93,1,0
2013-11-14 08:48:33.689,487,14.61,52.37598,4.91829,0,0,-1,9.5,5,1384415254,-0.2590485,-0.9790192,0.1538849,13.46479,3.965553,-118.7977,154.3523,153.8714,26,0.0.0.0,10.137.250.93,1,0
2013-11-14 08:48:33.895,488,14.64,52.37598,4.91829,0,0,-1,9.5,5,1384415254,-0.4155884,-0.8133087,0.08566284,14.56635,3.746174,-118.3383,154.3561,153.8752,26,0.0.0.0,10.137.250.93,1,0
2013-11-14 08:48:34.007,489,14.67,52.37598,4.91829,0,0,-1,9.5,5,1384415254,-0.4241638,-0.8859711,0.2454834,13.96049,4.239765,-118.7402,154.3592,153.8783,26,0.0.0.0,10.137.250.93,1,0
2013-11-14 08:48:34.111,490,14.7,52.37598,4.91829,0,0,-1,9.5,5,1384415254,-0.2980194,-0.946579,0.1955109,13.6851,3.526795,-118.568,154.3624,153.8815,26,0.0.0.0,10.137.250.93,1,0
2013-11-14 08:48:34.200,491,14.73,52.37598,4.91829,0,0,-1,9.5,5,1384415254,-0.3388672,-0.9505768,0.2051086,13.46479,3.30742,-118.3383,154.3676,153.8867,26,0.0.0.0,10.137.250.93,1,0
2013-11-14 08:48:34.289,492,14.76,52.37598,4.91829,0,0,-1,9.5,5,1384415254,-0.3371887,-0.9352264,0.1787872,12.80385,4.404298,-118.4531,154.3713,153.8904,26,0.0.0.0,10.137.250.93,1,0
2013-11-14 08:48:34.389,493,14.79,52.37598,4.91829,0,0,-1,9.5,5,1384415254,-0.4155884,-0.8404388,0.2220306,13.35463,4.623673,-119.257,154.3735,153.8926,26,0.0.0.0,10.137.250.93,1,0
2013-11-14 08:48:34.489,494,14.82,52.37598,4.91829,0,0,-1,9.5,5,1384415254,-0.4497223,-0.8081818,0.2549286,12.91401,3.965547,-119.1422,154.3754,153.8945,26,0.0.0.0,10.137.250.93,1,0
2013-11-14 08:48:34.590,495,14.85,52.37598,4.91829,0,0,-1,9.5,5,1384415254,-0.3827972,-0.9026337,0.2213745,13.96049,3.691331,-119.4293,154.3781,153.8972,26,0.0.0.0,10.137.250.93,1,0
2013-11-14 08:48:34.712,496,14.88,52.37598,4.91829,0,0,-1,9.5,5,1384415254,-0.3827972,-0.9026337,0.2213745,14.1808,3.362266,-118.7402,154.3798,153.8989,26,0.0.0.0,10.137.250.93,1,0
2013-11-14 08:48:34.918,497,14.91,52.37598,4.91829,0,0,-1,11.41904,10,1384415255,-0.3550415,-0.9194336,0.2643433,12.91401,4.733363,-117.6492,154.3847,153.9038,26,0.0.0.0,10.137.250.93,1,0
2013-11-14 08:48:34.984,498,14.94,52.37598,4.91829,0,0,-1,11.41904,10,1384415255,-0.3550415,-0.9194336,0.2643433,14.07064,4.130082,-118.166,154.3884,153.9075,26,0.0.0.0,10.137.250.93,1,0
2013-11-14 08:48:35.107,499,14.97,52.37598,4.91829,0,0,-1,11.41904,10,1384415255,-0.3462524,-0.9536285,0.1749115,14.67651,3.08805,-118.3383,154.393,153.9121,26,0.0.0.0,10.137.250.93,1,0
2013-11-14 08:48:35.205,500,15,52.37598,4.91829,0,0,-1,11.41904,10,1384415255,-0.3462524,-0.9536285,0.1749115,13.35463,3.965549,-119.4867,154.398,153.9171,26,0.0.0.0,10.137.250.93,1,0
2013-11-14 08:48:35.325,501,15.03,52.37598,4.91829,0,0,-1,11.41904,10,1384415255,-0.3233795,-0.9149628,0.1778259,13.29955,4.459144,-118.9699,154.4001,153.9191,26,0.0.0.0,10.137.250.93,1,0
2013-11-14 08:48:35.426,502,15.06,52.37598,4.91829,0,0,-1,11.41904,10,1384415255,-0.3960724,-0.8230896,0.2376556,13.13432,4.513984,-118.9125,154.402,153.9211,26,0.0.0.0,10.137.250.93,1,0
2013-11-14 08:48:35.556,503,15.09,52.37598,4.91829,0,0,-1,11.41904,10,1384415255,-0.3992767,-0.9157715,0.3547058,14.51127,4.020393,-118.3957,154.4077,153.9267,26,0.0.0.0,10.137.250.93,1,0
2013-11-14 08:48:35.640,504,15.12,52.37598,4.91829,0,0,-1,11.41904,10,1384415255,-0.350235,-0.988739,0.1759491,13.6851,3.08805,-117.7641,154.4104,153.9295,26,0.0.0.0,10.137.250.93,1,0
2013-11-14 08:48:35.911,505,15.15,52.37598,4.91829,0,0,-1,11.41904,10,1384415255,-0.285202,-1.052353,0.198761,13.07924,3.910707,-118.7402,154.4151,153.9342,26,0.0.0.0,10.137.250.93,1,0
2013-11-14 08:48:36.078,506,15.18,52.37598,4.91829,0,0,-1,11.41904,10,1384415255,-0.5169373,-0.7786102,0.4590454,13.85033,4.020393,-119.1996,154.4203,153.9394,26,0.0.0.0,10.137.250.93,1,0
2013-11-14 08:48:36.167,507,15.21,52.37598,4.91829,0,0,-1,11.41904,10,1384415255,-0.5169373,-0.7786102,0.4590454,14.78666,3.746171,-117.4195,154.4266,153.9457,26,0.0.0.0,10.137.250.93,1,0
2013-11-14 08:48:36.270,508,15.24,52.37598,4.91829,0,0,-1,11.41904,10,1384415255,-0.5112152,-0.7852631,0.2760468,13.46479,3.855857,-117.6492,154.4333,153.9524,26,0.0.0.0,10.137.250.93,1,0
2013-11-14 08:48:36.354,509,15.27,52.37598,4.91829,0,0,-1,9.5,5,1384415256,-0.5112152,-0.7852631,0.2760468,13.46479,4.075233,-118.3383,154.4352,153.9543,26,0.0.0.0,10.137.250.93,1,0
2013-11-14 08:48:36.455,510,15.3,52.37598,4.91829,0,0,-1,9.5,5,1384415256,-0.4616241,-0.7855225,0.2470398,12.80385,4.843046,-118.3383,154.4394,153.9585,26,0.0.0.0,10.137.250.93,1,0
2013-11-14 08:48:36.558,511,15.33,52.37598,4.91829,0,0,-1,9.5,5,1384415256,-0.3336792,-0.9225769,0.1807098,13.57494,5.501173,-117.6492,154.444,153.9631,26,0.0.0.0,10.137.250.93,1,0
2013-11-14 08:48:36.662,512,15.36,52.37598,4.91829,0,0,-1,9.5,5,1384415256,-0.4551392,-0.849762,0.1829681,14.12572,4.733363,-117.1898,154.4482,153.9673,26,0.0.0.0,10.137.250.93,1,0
2013-11-14 08:48:37.244,513,15.39,52.37598,4.91829,0,0,-1,9.5,5,1384415256,-0.428772,-0.8403931,0.1957092,15.28236,5.665705,-115.8691,154.4668,153.9859,26,0.0.0.0,10.137.250.93,1,0
2013-11-14 08:48:37.418,514,15.42,52.37598,4.91829,0,0,-1,9.5,5,1384415256,-0.4123535,-0.9439697,0.2330322,15.00697,6.268989,-112.9406,154.4784,153.9975,26,0.0.0.0,10.137.250.93,1,0
2013-11-14 08:48:37.547,515,15.45,52.37598,4.91829,0,0,-1,9.5,5,1384415256,-0.4123535,-0.9439697,0.2330322,15.83315,6.214142,-113.2277,154.4828,154.0019,26,0.0.0.0,10.137.250.93,1,0
2013-11-14 08:48:37.657,516,15.48,52.37598,4.91829,0,0,-1,9.5,5,1384415256,-0.3260956,-0.9637756,0.1789093,17.26518,6.543205,-113.1129,154.487,154.006,26,0.0.0.0,10.137.250.93,1,0
2013-11-14 08:48:37.838,517,15.51,52.37598,4.91829,0,0,-1,9.5,5,1384415256,-0.3260956,-0.9637756,0.1789093,16.76947,5.062425,-112.1367,154.4962,154.0152,26,0.0.0.0,10.137.250.93,1,0
2013-11-14 08:48:37.951,518,15.54,52.37598,4.91829,0,0,-1,9.5,5,1384415256,-0.5535431,-0.6219482,0.4117432,16.32885,3.965549,-112.4812,154.5037,154.0228,26,0.0.0.0,10.137.250.93,1,0
2013-11-14 08:48:38.068,519,15.57,52.37598,4.91829,0,0,-1,9.5,5,1384415256,-0.3244171,-1.105316,0.3078003,16.32885,4.294609,-114.3187,154.5082,154.0273,26,0.0.0.0,10.137.250.93,1,0
2013-11-14 08:48:38.179,520,15.6,52.37598,4.91829,0,0,-1,9.5,5,1384415256,-0.4276733,-0.8920746,0.2094727,15.77807,4.294609,-115.8117,154.5175,154.0366,26,0.0.0.0,10.137.250.93,1,0
2013-11-14 08:48:38.263,521,15.63,52.37598,4.91829,0,0,-1,9.5,5,1384415256,-0.4377289,-0.8646698,0.1927948,15.77807,4.075233,-117.5344,154.5239,154.043,26,0.0.0.0,10.137.250.93,1,0
2013-11-14 08:48:38.362,522,15.66,52.37598,4.91829,0,0,-1,9.5,5,1384415257,-0.4539795,-0.8268585,0.233551,15.88823,3.417109,-117.9937,154.5297,154.0488,26,0.0.0.0,10.137.250.93,1,0
2013-11-14 08:48:38.461,523,15.69,52.37598,4.91829,0,0,-1,9.5,5,1384415257,-0.4055786,-0.8995361,0.1910706,13.90541,3.307423,-119.3719,154.5437,154.0628,26,0.0.0.0,10.137.250.93,1,0
2013-11-14 08:48:38.561,524,15.72,52.37598,4.91829,0,0,-1,9.5,5,1384415257,-0.4257965,-0.8407288,0.1655426,13.79525,4.843052,-119.8313,154.5561,154.0752,26,0.0.0.0,10.137.250.93,1,0
2013-11-14 08:48:38.678,525,15.75,52.37598,4.91829,0,0,-1,9.5,5,1384415257,-0.2653656,-1.021545,-0.133194,14.29096,4.67852,-119.659,154.5611,154.0802,26,0.0.0.0,10.137.250.93,1,0
2013-11-14 08:48:38.836,526,15.78,52.37598,4.91829,0,0,-1,9.5,5,1384415257,-0.2653656,-1.021545,-0.133194,12.96908,4.020393,-118.0512,154.5762,154.0953,26,0.0.0.0,10.137.250.93,1,0
2013-11-14 08:48:38.950,527,15.81,52.37598,4.91829,0,0,-1,9.5,5,1384415257,-0.4388885,-0.9464722,0.2232056,13.46479,4.513987,-118.1086,154.5826,154.1017,26,0.0.0.0,10.137.250.93,1,0
2013-11-14 08:48:39.063,528,15.84,52.37598,4.91829,0,0,-1,9.5,5,1384415257,-0.4388885,-0.9464722,0.2232056,14.40112,4.56883,-117.5918,154.5884,154.1075,26,0.0.0.0,10.137.250.93,1,0
2013-11-14 08:48:39.160,529,15.87,52.37598,4.91829,0,0,-1,9.5,5,1384415257,-0.4224243,-0.919342,0.2329254,13.96049,4.02039,-117.5918,154.5937,154.1128,26,0.0.0.0,10.137.250.93,1,0
2013-11-14 08:48:39.262,530,15.9,52.37598,4.91829,0,0,-1,9.5,5,1384415257,-0.4000397,-0.8937073,0.2008057,13.6851,3.965547,-117.7641,154.5979,154.117,26,0.0.0.0,10.137.250.93,1,0
2013-11-14 08:48:39.385,531,15.93,52.37598,4.91829,0,0,-1,9.5,5,1384415257,-0.4247437,-0.8204041,0.2540894,13.35463,4.294614,-118.3383,154.605,154.1241,26,0.0.0.0,10.137.250.93,1,0
2013-11-14 08:48:39.488,532,15.96,52.37598,4.91829,0,0,-1,9.5,5,1384415257,-0.4755402,-0.9746552,0.2688904,14.40112,3.581638,-116.9027,154.6154,154.1345,26,0.0.0.0,10.137.250.93,1,0
2013-11-14 08:48:39.582,533,15.99,52.37598,4.91829,0,0,-1,9.5,5,1384415258,-0.3933258,-0.9873505,0.2332153,13.79525,3.855857,-117.3047,154.6229,154.142,26,0.0.0.0,10.137.250.93,1,0
2013-11-14 08:48:39.677,534,16.02,52.37598,4.91829,0,0,-1,9.5,5,1384415258,-0.3866425,-0.8660889,0.258255,13.24447,4.184925,-118.2234,154.6313,154.1504,26,0.0.0.0,10.137.250.93,1,0
2013-11-14 08:48:39.888,535,16.05,52.37598,4.91829,0,0,-1,9.5,5,1384415258,-0.5298004,-0.8614044,0.1359711,14.07064,3.801017,-117.7066,154.6412,154.1603,26,0.0.0.0,10.137.250.93,1,0
2013-11-14 08:48:40.018,536,16.08,52.37598,4.91829,0,0,-1,9.5,5,1384415258,-0.3382721,-0.9676819,0.3687286,14.34604,3.197736,-117.075,154.649,154.1681,26,0.0.0.0,10.137.250.93,1,0
2013-11-14 08:48:40.130,537,16.11,52.37598,4.91829,0,0,-1,9.5,5,1384415258,-0.480545,-0.8470001,0.1078796,13.85033,3.691331,-117.5918,154.6578,154.1769,26,0.0.0.0,10.137.250.93,1,0
2013-11-14 08:48:40.267,538,16.14,52.37598,4.91829,0,0,-1,9.5,5,1384415258,-0.480545,-0.8470001,0.1078796,13.57494,3.197736,-116.5008,154.6661,154.1852,26,0.0.0.0,10.137.250.93,1,0
2013-11-14 08:48:40.351,539,16.17,52.37598,4.91829,0,0,-1,9.5,5,1384415258,-0.3956299,-0.839859,0.2201691,13.40971,3.581642,-117.9363,154.6779,154.197,26,0.0.0.0,10.137.250.93,1,0
2013-11-14 08:48:40.457,540,16.2,52.37598,4.91829,0,0,-1,9.5,5,1384415258,-0.4593964,-0.8628235,0.3513947,13.96049,3.910707,-117.8215,154.6913,154.2104,26,0.0.0.0,10.137.250.93,1,0
2013-11-14 08:48:40.555,541,16.23,52.37598,4.91829,0,0,-1,9.5,5,1384415258,-0.4823151,-0.878067,0.2345276,14.40112,4.130082,-117.0176,154.7005,154.2196,26,0.0.0.0,10.137.250.93,1,0
2013-11-14 08:48:40.656,542,16.26,52.37598,4.91829,0,0,-1,9.5,5,1384415258,-0.4164581,-0.8144684,0.2823181,13.96049,4.349458,-116.673,154.7128,154.2318,26,0.0.0.0,10.137.250.93,1,0
2013-11-14 08:48:40.823,543,16.29,52.37598,4.91829,0,0,-1,9.5,5,1384415258,-0.4094543,-0.9020844,0.2251587,13.6851,4.075236,-118.6828,154.7341,154.2532,26,0.0.0.0,10.137.250.93,1,0
2013-11-14 08:48:40.954,544,16.32,52.37598,4.91829,0,0,-1,9.5,5,1384415258,-0.4737091,-0.8409424,0.2529602,13.29955,3.581638,-116.9027,154.7501,154.2692,26,0.0.0.0,10.137.250.93,1,0
2013-11-14 08:48:41.088,545,16.35,52.37598,4.91829,0,0,-1,9.5,5,1384415258,-0.3682404,-1.02594,0.3463593,13.13432,4.184922,-117.3047,154.758,154.2771,26,0.0.0.0,10.137.250.93,1,0
2013-11-14 08:48:41.210,546,16.38,52.37598,4.91829,0,0,-1,9.5,5,1384415258,-0.3682404,-1.02594,0.3463593,13.79525,4.513987,-117.9937,154.7703,154.2894,26,0.0.0.0,10.137.250.93,1,0
2013-11-14 08:48:41.287,547,16.41,52.37598,4.91829,0,0,-1,9.5,5,1384415259,-0.3822784,-0.9335327,0.04812622,14.1808,3.691331,-117.7066,154.7751,154.2941,26,0.0.0.0,10.137.250.93,1,0
2013-11-14 08:48:41.392,548,16.44,52.37598,4.91829,0,0,-1,9.5,5,1384415259,-0.2444916,-1.008865,0.2348328,14.23588,2.978361,-117.7641,154.7938,154.3129,26,0.0.0.0,10.137.250.93,1,0
2013-11-14 08:48:41.494,549,16.47,52.37598,4.91829,0,0,-1,9.5,5,1384415259,-0.3462524,-1.005981,0.2217865,13.46479,3.636485,-117.1898,154.8026,154.3216,26,0.0.0.0,10.137.250.93,1,0
2013-11-14 08:48:41.595,550,16.5,52.37598,4.91829,0,0,-1,9.5,5,1384415259,-0.3951569,-0.9360199,0.177597,14.23588,3.746174,-117.075,154.8199,154.339,26,0.0.0.0,10.137.250.93,1,0
2013-11-14 08:48:41.712,551,16.53,52.37598,4.91829,0,0,-1,9.5,5,1384415259,-0.411377,-0.8590851,0.2211304,14.45619,4.184922,-118.1086,154.8279,154.347,26,0.0.0.0,10.137.250.93,1,0
2013-11-14 08:48:41.911,552,16.56,52.37598,4.91829,0,0,-1,9.5,5,1384415259,-0.4441528,-0.8360748,0.209259,14.01557,4.404301,-117.075,154.8484,154.3675,26,0.0.0.0,10.137.250.93,1,0
2013-11-14 08:48:42.011,553,16.59,52.37598,4.91829,0,0,-1,9.5,5,1384415259,-0.3969727,-0.9558105,0.2555084,12.91401,4.075239,-117.6492,154.8616,154.3807,26,0.0.0.0,10.137.250.93,1,0
2013-11-14 08:48:42.131,554,16.62,52.37598,4.91829,0,0,-1,9.5,5,1384415259,-0.4310455,-0.8705292,0.2103729,14.29096,3.910707,-117.9363,292.997,292.5161,25,0.0.0.0,10.137.250.93,1,0
2013-11-14 08:48:42.218,555,16.65,52.37598,4.91829,0,0,-1,9.5,5,1384415259,-0.4163208,-0.8511047,0.2279053,13.74018,3.691331,-117.3621,292.9887,292.5078,25,0.0.0.0,10.137.250.93,1,0
2013-11-14 08:48:42.328,556,16.68,52.37598,4.91829,0,0,-1,9.5,5,1384415259,-0.4163208,-0.8511047,0.2279053,14.78666,3.746174,-118.4531,292.9779,292.497,25,0.0.0.0,10.137.250.93,1,0
2013-11-14 08:48:42.422,557,16.71,52.37598,4.91829,0,0,-1,9.5,5,1384415259,-0.4096985,-0.9343567,0.2232819,14.89682,4.513984,-118.9125,292.97,292.4891,25,0.0.0.0,10.137.250.93,1,0
2013-11-14 08:48:42.454,558,16.74,52.37598,4.91829,0,0,-1,9.5,5,1384415259,-0.375885,-0.9041748,0.1746521,14.1808,4.239765,-118.6254,292.9695,292.4886,25,0.0.0.0,10.137.250.93,1,0
2013-11-14 08:48:42.545,559,16.77,52.37598,4.91829,0,0,-1,9.5,5,1384415260,-0.375885,-0.9041748,0.1746521,13.96049,4.459141,-117.4769,292.969,292.4881,25,0.0.0.0,10.137.250.93,1,0
2013-11-14 08:48:42.627,560,16.8,52.37598,4.91829,0,0,-1,9.5,5,1384415260,-0.3806305,-0.910675,0.2028809,13.6851,4.513987,-116.3859,292.9727,292.4918,25,0.0.0.0,10.137.250.93,1,0
2013-11-14 08:48:42.751,561,16.83,52.37598,4.91829,0,0,-1,9.5,5,1384415260,-0.3913879,-0.759491,0.1469727,14.07064,4.130079,-116.5582,292.9731,292.4922,25,0.0.0.0,10.137.250.93,1,0
2013-11-14 08:48:42.948,562,16.86,52.37598,4.91829,0,0,-1,9.5,5,1384415260,-0.3373108,-1.058258,0.1888428,14.62143,3.801017,-117.5918,292.9586,292.4777,25,0.0.0.0,10.137.250.93,1,0
2013-11-14 08:48:43.046,563,16.89,52.37598,4.91829,0,0,-1,9.5,5,1384415260,-0.3619232,-0.9300537,0.1533661,14.23588,3.636487,-117.7641,292.8486,292.3677,25,0.0.0.0,10.137.250.93,1,0
2013-11-14 08:48:43.258,564,16.92,52.37598,4.91829,0,0,-1,9.5,5,1384415260,-0.3688354,-0.8827362,0.1853333,13.46479,3.08805,-117.7641,292.9697,292.4888,25,0.0.0.0,10.137.250.93,1,0
2013-11-14 08:48:43.359,565,16.95,52.37598,4.91829,0,0,-1,9.5,5,1384415260,-0.4133759,-0.88591,0.1686249,13.46479,4.075236,-117.5344,293.2909,292.81,25,0.0.0.0,10.137.250.93,1,0
2013-11-14 08:48:43.462,566,16.98,52.37598,4.91829,0,0,-1,9.5,5,1384415260,-0.4133759,-0.88591,0.1686249,14.01557,4.075236,-117.4195,293.2846,292.8037,25,0.0.0.0,10.137.250.93,1,0
2013-11-14 08:48:43.563,567,17.01,52.37598,4.91829,0,0,-1,9.5,5,1384415260,-0.3848114,-0.8968048,0.2145233,13.74018,4.239769,-117.3621,293.2862,292.8053,25,0.0.0.0,10.137.250.93,1,0
2013-11-14 08:48:43.676,568,17.04,52.37598,4.91829,0,0,-1,9.5,5,1384415260,-0.3165894,-0.9153442,0.1515656,13.85033,4.020393,-117.3621,293.2829,292.802,25,0.0.0.0,10.137.250.93,1,0
2013-11-14 08:48:43.888,569,17.07,52.37598,4.91829,0,0,-1,9.5,5,1384415260,-0.4067993,-0.9157867,0.3381348,14.29096,3.471958,-114.9504,293.7968,293.3159,25,0.0.0.0,10.137.250.93,1,0
2013-11-14 08:48:43.963,570,17.1,52.37598,4.91829,0,0,-1,9.5,5,1384415260,-0.3466797,-0.9369049,0.1865387,14.56635,3.965549,-113.8594,295.3273,294.8464,25,0.0.0.0,10.137.250.93,1,0
2013-11-14 08:48:44.095,571,17.13,52.37598,4.91829,0,0,-1,9.5,5,1384415261,-0.3330841,-0.9396515,0.130127,14.56635,2.649302,-110.8734,297.6056,297.1247,25,0.0.0.0,10.137.250.93,1,0
2013-11-14 08:48:44.198,572,17.16,52.37598,4.91829,0,0,-1,9.5,5,1384415261,-0.3322296,-0.9403687,0.1593475,14.56635,0.6749246,-104.2125,299.5926,299.1117,25,0.0.0.0,10.137.250.93,1,0
2013-11-14 08:48:44.301,573,17.19,52.37598,4.91829,0,0,-1,9.5,5,1384415261,-0.3322296,-0.9403687,0.1593475,14.23588,0.7846079,-102.7195,302.0021,301.5212,25,0.0.0.0,10.137.250.93,1,0
2013-11-14 08:48:44.374,574,17.22,52.37598,4.91829,0,0,-1,9.5,5,1384415261,-0.3565369,-0.9239349,0.1952362,14.84174,1.607264,-102.6621,303.3578,302.877,25,0.0.0.0,10.137.250.93,1,0
2013-11-14 08:48:44.471,575,17.25,52.37598,4.91829,0,0,-1,9.5,5,1384415261,-0.3565369,-0.9239349,0.1952362,16.05346,1.71695,-101.7434,304.9464,304.4655,25,0.0.0.0,10.137.250.93,1,0
2013-11-14 08:48:44.562,576,17.28,52.37598,4.91829,0,0,-1,9.5,5,1384415261,-0.3547363,-0.9031677,0.1153564,15.83315,0.6200783,-100.4801,307.1182,306.6373,25,0.0.0.0,10.137.250.93,1,0
2013-11-14 08:48:44.689,577,17.31,52.37598,4.91829,0,0,-1,9.5,5,1384415261,-0.3688965,-0.8816681,0.1950684,15.22729,0.01680076,-99.96327,305.1498,304.6689,30,0.0.0.0,10.137.250.93,1,0
2013-11-14 08:48:44.852,578,17.34,52.37598,4.91829,0,0,-1,9.5,5,1384415261,-0.3665619,-0.9404602,0.1825867,15.50268,-0.6961691,-100.4801,304.6427,304.1618,30,0.0.0.0,10.137.250.93,1,0
2013-11-14 08:48:44.977,579,17.37,52.37598,4.91829,0,0,-1,9.5,5,1384415261,-0.3790436,-0.8998413,0.2145538,15.28236,-0.6961691,-101.5137,303.6575,303.1766,30,0.0.0.0,10.137.250.93,1,0
2013-11-14 08:48:45.101,580,17.4,52.37598,4.91829,0,0,-1,9.5,5,1384415261,-0.3584442,-0.9687042,0.2099609,15.00697,-0.6413261,-103.868,303.4896,303.0087,30,0.0.0.0,10.137.250.93,1,0
2013-11-14 08:48:45.179,581,17.43,52.37598,4.91829,0,0,-1,9.5,5,1384415261,-0.4027252,-0.9051208,0.2261505,14.51127,-0.1477317,-104.959,303.9925,303.5116,30,0.0.0.0,10.137.250.93,1,0
2013-11-14 08:48:45.349,582,17.46,52.37598,4.91829,0.3347855,0,-1,9.5,5,1384415262,-0.4027252,-0.9051208,0.2261505,13.85033,0.07164383,-105.8777,305.396,304.9151,30,0.0.0.0,10.137.250.93,1,0
2013-11-14 08:48:45.593,583,17.49,52.37598,4.91829,0.3347855,0,-1,9.5,5,1384415262,-0.3635254,-0.9062958,0.1834869,14.29096,-0.257421,-107.0262,307.1744,306.6935,30,0.0.0.0,10.137.250.93,1,0
2013-11-14 08:48:45.968,584,17.52,52.37598,4.91829,0.3347855,0,-1,9.5,5,1384415262,-0.3635254,-0.9062958,0.1834869,13.6851,-2.396322,-106.2797,311.4623,310.9814,30,0.0.0.0,10.137.250.93,1,0
2013-11-14 08:48:46.129,585,17.55,52.37598,4.91829,0.3347855,0,-1,9.5,5,1384415262,-0.3522644,-0.9370422,0.1602325,13.85033,-3.328661,-106.2223,6.238262,5.757355,31,0.0.0.0,10.137.250.93,1,0
2013-11-14 08:48:46.228,586,17.58,52.37598,4.91829,0.3347855,0,-1,9.5,5,1384415262,-0.3334045,-0.9334106,0.1719666,14.01557,-3.712563,-105.5906,18.16365,17.68275,31,0.0.0.0,10.137.250.93,1,0
2013-11-14 08:48:46.327,587,17.61,52.37598,4.91829,0.3347855,0,-1,9.5,5,1384415262,-0.3456268,-0.9371185,0.1651306,13.40971,-2.999599,-106.9113,19.74956,19.26865,31,0.0.0.0,10.137.250.93,1,0
2013-11-14 08:48:46.430,588,17.64,52.37598,4.91829,0.3347855,0,-1,9.5,5,1384415262,-0.3632812,-0.9170685,0.1815643,13.29955,-3.109289,-108.9785,21.26103,20.78012,31,0.0.0.0,10.137.250.93,1,0
2013-11-14 08:48:46.525,589,17.67,52.37598,4.91829,0.3347855,0,-1,9.5,5,1384415262,-0.3670959,-0.9207001,0.2049255,13.79525,-3.273818,-110.0695,23.57432,23.09341,31,0.0.0.0,10.137.250.93,1,0
2013-11-14 08:48:46.623,590,17.7,52.37598,4.91829,0.3347855,0,-1,9.5,5,1384415262,-0.3670959,-0.9207001,0.2049255,12.69369,-3.712566,-110.4141,26.84723,26.36632,31,0.0.0.0,10.137.250.93,1,0
2013-11-14 08:48:46.730,591,17.73,52.37598,4.91829,0.3347855,0,-1,9.5,5,1384415262,-0.3910828,-0.8740997,0.2270966,11.59213,-3.712563,-109.6102,32.38489,31.90398,31,0.0.0.0,10.137.250.93,1,0
2013-11-14 08:48:46.926,592,17.76,52.37598,4.91829,0.3347855,0,-1,9.5,5,1384415262,-0.3910828,-0.8740997,0.2270966,12.30815,-3.109286,-108.5191,46.502,46.02109,31,0.0.0.0,10.137.250.93,1,0
2013-11-14 08:48:47.047,593,17.79,52.37598,4.91829,0.3347855,0,-1,9.5,5,1384415262,-0.3876038,-0.894989,0.1930847,12.63861,-2.889907,-109.2082,48.81112,48.33021,31,0.0.0.0,10.137.250.93,1,0
2013-11-14 08:48:47.153,594,17.82,52.37598,4.91829,0.3347855,0,-1,9.5,5,1384415262,-0.3609161,-0.9432526,0.2108459,10.71088,-3.712563,-108.5766,52.7005,52.21959,31,0.0.0.0,10.137.250.93,1,0
2013-11-14 08:48:47.260,595,17.85,52.37598,4.91829,0.3347855,0,-1,9.5,5,1384415262,-0.3760376,-0.906723,0.2194519,11.20658,-3.65772,-108.4043,59.45195,58.97105,31,0.0.0.0,10.137.250.93,1,0
2013-11-14 08:48:47.381,596,17.88,52.37598,4.91829,0,0,-1,9.5,5,1384415263,-0.3659821,-0.839798,0.1842651,12.47338,-4.261001,-108.5766,60.4418,59.96089,31,0.0.0.0,10.137.250.93,1,0
2013-11-14 08:48:47.477,597,17.91,52.37598,4.91829,0,0,-1,9.5,5,1384415263,-0.3619843,-0.8925476,0.196106,12.30815,-4.535219,-107.6004,65.51656,65.03564,31,0.0.0.0,10.137.250.93,1,0
2013-11-14 08:48:47.587,598,17.94,52.37598,4.91829,0,0,-1,9.5,5,1384415263,-0.3417511,-0.9009399,0.176712,11.81244,-3.60288,-106.6242,66.87543,66.39452,31,0.0.0.0,10.137.250.93,1,0
2013-11-14 08:48:47.694,599,17.97,52.37598,4.91829,0,0,-1,9.5,5,1384415263,-0.3417511,-0.9009399,0.176712,14.45619,-3.602874,-105.1312,73.25806,72.77715,26,0.0.0.0,10.137.250.93,1,0
2013-11-14 08:48:47.913,600,18,52.37598,4.91829,0,0,-1,9.5,5,1384415263,-0.2746124,-1.053726,0.1812897,14.34604,-4.590063,-102.6047,83.10539,82.62448,26,0.0.0.0,10.137.250.93,1,0
2013-11-14 08:48:48.024,601,18.03,52.37598,4.91829,0,0,-1,9.5,5,1384415263,-0.2746124,-1.053726,0.1812897,13.96049,-4.42553,-101.0543,88.04901,87.5681,26,0.0.0.0,10.137.250.93,1,0
2013-11-14 08:48:48.119,602,18.06,52.37598,4.91829,0,0,-1,9.5,5,1384415263,-0.3045654,-0.9485779,0.1789551,15.11713,-4.480376,-99.96327,90.57185,90.09093,26,0.0.0.0,10.137.250.93,1,0
2013-11-14 08:48:48.215,603,18.09,52.37598,4.91829,0,0,-1,9.5,5,1384415263,-0.3147125,-0.9265137,0.2168121,16.27377,-4.096471,-96.57539,95.27958,94.79867,26,0.0.0.0,10.137.250.93,1,0
2013-11-14 08:48:48.308,604,18.12,52.37598,4.91829,0,0,-1,9.5,5,1384415263,-0.3455505,-0.9120636,0.2351532,17.32026,-4.37069,-93.87656,100.9902,100.5093,26,0.0.0.0,10.137.250.93,1,0
2013-11-14 08:48:48.410,605,18.15,52.37598,4.91829,0,0,-1,9.5,5,1384415263,-0.3606873,-0.91008,0.2058716,16.60424,-3.548037,-91.29257,104.0178,103.5369,26,0.0.0.0,10.137.250.93,1,0
2013-11-14 08:48:48.529,606,18.18,52.37598,4.918308,0,0.6519787,-1,9.5,5,1384415264,-0.3645935,-0.9060669,0.2068481,15.88823,-4.041625,-90.89062,107.6583,107.1774,26,0.0.0.0,10.137.250.93,1,0
2013-11-14 08:48:48.621,607,18.21,52.37598,4.918308,0,0.6519787,-1,9.5,5,1384415264,-0.3645935,-0.9060669,0.2068481,15.61283,-4.973968,-90.14413,107.6069,107.126,26,0.0.0.0,10.137.250.93,1,0
2013-11-14 08:48:48.727,608,18.24,52.37598,4.918308,0,0.6519787,-1,9.5,5,1384415264,-0.3347321,-0.9260712,0.22258,16.32885,-4.809435,-90.20155,108.5871,108.1062,26,0.0.0.0,10.137.250.93,1,0
2013-11-14 08:48:48.928,609,18.27,52.37598,4.918308,0,0.6519787,-1,9.5,5,1384415264,-0.3347321,-0.9260712,0.22258,16.05346,-5.741784,-90.25899,105.8169,105.336,26,0.0.0.0,10.137.250.93,1,0
2013-11-14 08:48:49.051,610,18.3,52.37598,4.918308,0,0.6519787,-1,9.5,5,1384415264,-0.3245697,-0.9041748,0.1807098,16.7144,-6.72897,-89.45508,105.9669,105.486,26,0.0.0.0,10.137.250.93,1,0
2013-11-14 08:48:49.138,611,18.33,52.37598,4.918308,0,0.6519787,-1,9.5,5,1384415264,-0.316925,-0.9445648,0.1613464,16.16362,-6.180535,-89.22539,105.1757,104.6948,26,0.0.0.0,10.137.250.93,1,0
2013-11-14 08:48:49.171,612,18.36,52.37598,4.918308,0,0.6519787,-1,9.5,5,1384415264,-0.3230133,-0.9343872,0.1944122,16.38393,-5.741784,-90.37383,105.2202,104.7393,26,0.0.0.0,10.137.250.93,1,0
2013-11-14 08:48:49.246,613,18.39,52.37598,4.918308,0,0.6519787,-1,9.5,5,1384415264,-0.3230133,-0.9343872,0.1944122,16.38393,-4.97397,-89.22539,105.2721,104.7912,26,0.0.0.0,10.137.250.93,1,0
2013-11-14 08:48:49.338,614,18.42,52.37598,4.918308,0,0.6519787,-1,9.5,5,1384415264,-0.3300629,-0.9185028,0.2040863,16.82455,-4.864285,-88.9957,105.428,104.9471,26,0.0.0.0,10.137.250.93,1,0
2013-11-14 08:48:49.464,615,18.45,52.37598,4.918308,0,0.6519787,-1,9.5,5,1384415264,-0.3309631,-0.9568939,0.1710815,17.65072,-5.248189,-88.36406,105.6306,105.1496,26,0.0.0.0,10.137.250.93,1,0
2013-11-14 08:48:49.565,616,18.48,52.37598,4.918308,0,0.6519787,-1,9.5,5,1384415264,-0.294342,-0.9893646,0.2287445,16.87963,-5.028814,-87.78984,106.0296,105.5487,26,0.0.0.0,10.137.250.93,1,0
2013-11-14 08:48:49.644,617,18.51,52.37598,4.918308,0,0.6519787,-1,9.5,5,1384415264,-0.3609467,-0.9039764,0.2301941,17.43041,-4.590066,-87.90468,106.1083,105.6274,26,0.0.0.0,10.137.250.93,1,0
2013-11-14 08:48:49.794,618,18.54,52.37598,4.918308,0,0.6519787,-1,9.5,5,1384415264,-0.4122467,-0.8227997,0.2336884,18.14643,-4.096468,-86.69882,106.2563,105.7754,26,0.0.0.0,10.137.250.93,1,0
2013-11-14 08:48:49.962,619,18.57,52.37598,4.918317,0.3183708,0.6445967,-1,9.5,5,1384415265,-0.4122467,-0.8227997,0.2336884,18.47689,-3.877096,-85.55038,106.3216,105.8407,26,0.0.0.0,10.137.250.93,1,0
2013-11-14 08:48:50.084,620,18.6,52.37598,4.918317,0.3183708,0.6445967,-1,9.5,5,1384415265,-0.3597412,-0.917572,0.2419434,18.58705,-3.877096,-84.97617,106.3288,105.8479,26,0.0.0.0,10.137.250.93,1,0
2013-11-14 08:48:50.184,621,18.63,52.37598,4.918317,0.3183708,0.6445967,-1,9.5,5,1384415265,-0.3597412,-0.917572,0.2419434,18.09135,-3.493188,-85.14844,106.2935,105.8126,26,0.0.0.0,10.137.250.93,1,0
2013-11-14 08:48:50.306,622,18.66,52.37598,4.918317,0.3183708,0.6445967,-1,9.5,5,1384415265,-0.3748016,-0.9203949,0.2224121,17.43041,-1.518819,-85.14844,106.0805,105.5996,26,0.0.0.0,10.137.250.93,1,0
2013-11-14 08:48:50.396,623,18.69,52.37598,4.918317,0.3183708,0.6445967,-1,9.5,5,1384415265,-0.3567047,-0.9226685,0.2263641,17.04486,-1.683352,-83.25351,105.8431,105.3622,26,0.0.0.0,10.137.250.93,1,0
2013-11-14 08:48:50.500,624,18.72,52.37598,4.918317,0.3183708,0.6445967,-1,9.5,5,1384415265,-0.3162994,-0.9860077,0.2276764,15.99838,-0.64132,-83.31093,100.9021,100.4212,26,0.0.0.0,10.137.250.93,1,0
2013-11-14 08:48:50.590,625,18.75,52.37598,4.918317,0.3183708,0.6445967,-1,9.5,5,1384415265,-0.3001099,-1.024628,0.2064056,16.32885,0.8943002,-83.88515,97.28651,96.8056,26,0.0.0.0,10.137.250.93,1,0
2013-11-14 08:48:50.702,626,18.78,52.37598,4.918317,0.3183708,0.6445967,-1,9.5,5,1384415265,-0.394516,-0.8439178,0.2065735,17.37533,0.7297678,-84.63164,94.53961,94.0587,26,0.0.0.0,10.137.250.93,1,0
2013-11-14 08:48:50.911,627,18.81,52.37598,4.918317,0.3183708,0.6445967,-1,9.5,5,1384415265,-0.3921204,-0.865448,0.2066193,17.92611,0.6200845,-84.17226,94.05223,93.57132,26,0.0.0.0,10.137.250.93,1,0
2013-11-14 08:48:51.029,628,18.84,52.37598,4.918317,0.3183708,0.6445967,-1,9.5,5,1384415265,-0.4021912,-0.8725739,0.155014,16.10854,-0.4219444,-82.73671,94.95387,94.47295,26,0.0.0.0,10.137.250.93,1,0
2013-11-14 08:48:51.154,629,18.87,52.37598,4.918317,0.3183708,0.6445967,-1,9.5,5,1384415265,-0.4189911,-0.8617249,0.2376556,15.66791,0.2361765,-83.88515,94.95686,94.47594,26,0.0.0.0,10.137.250.93,1,0
2013-11-14 08:48:51.252,630,18.9,52.37598,4.918317,0.3183708,0.6445967,-1,9.5,5,1384415265,-0.4098969,-0.8853607,0.2377625,16.21869,0.1264901,-84.22969,94.9201,94.43919,26,0.0.0.0,10.137.250.93,1,0
2013-11-14 08:48:51.343,631,18.93,52.37598,4.918317,0.3183708,0.6445967,-1,9.5,5,1384415265,-0.4098969,-0.8853607,0.2377625,16.21869,-0.09288859,-83.19609,94.85852,94.37761,26,0.0.0.0,10.137.250.93,1,0
2013-11-14 08:48:51.453,632,18.96,52.37598,4.918317,0.3183708,0.6445967,-1,9.5,5,1384415265,-0.4308319,-0.8410187,0.2307281,16.43901,0.2361734,-83.65547,94.85201,94.37109,26,0.0.0.0,10.137.250.93,1,0
2013-11-14 08:48:51.558,633,18.99,52.37598,4.918317,0.3183708,0.6445967,-1,9.5,5,1384415265,-0.4116974,-0.8883057,0.2299652,15.61283,-0.03804541,-83.59804,95.39801,94.9171,26,0.0.0.0,10.137.250.93,1,0
2013-11-14 08:48:51.663,634,19.02,52.37598,4.918317,0.3183708,0.6445967,-1,9.5,5,1384415265,-0.4012299,-0.8856964,0.2192993,14.9519,1.168516,-85.32069,95.06613,94.58522,26,0.0.0.0,10.137.250.93,1,0
2013-11-14 08:48:51.816,635,19.05,52.37598,4.918326,0.6419029,0.3950913,-1,9.5,5,1384415266,-0.4012299,-0.8856964,0.2192993,14.51127,1.278205,-85.20586,94.19557,93.71466,26,0.0.0.0,10.137.250.93,1,0
2013-11-14 08:48:51.981,636,19.08,52.37598,4.918326,0.6419029,0.3950913,-1,9.5,5,1384415266,-0.3979034,-0.90448,0.2028046,13.63002,1.936329,-84.74648,90.44798,89.96706,26,0.0.0.0,10.137.250.93,1,0
2013-11-14 08:48:52.104,637,19.11,52.37598,4.918326,0.6419029,0.3950913,-1,9.5,5,1384415266,-0.3766937,-0.9194489,0.2155762,10.82104,5.610859,-88.4789,87.10799,86.62708,26,0.0.0.0,10.137.250.93,1,0
2013-11-14 08:48:52.202,638,19.14,52.37598,4.918326,0.6419029,0.3950913,-1,9.5,5,1384415266,-0.4077301,-0.8961639,0.2358551,11.70229,7.804612,-90.31641,82.79467,82.31376,26,0.0.0.0,10.137.250.93,1,0
2013-11-14 08:48:52.298,639,19.17,52.37598,4.918326,0.6419029,0.3950913,-1,9.5,5,1384415266,-0.4434204,-0.8758545,0.2434387,11.9226,8.243362,-91.57968,77.90685,77.42593,26,0.0.0.0,10.137.250.93,1,0
2013-11-14 08:48:52.394,640,19.2,52.37598,4.918326,0.6419029,0.3950913,-1,9.5,5,1384415266,-0.4434204,-0.8758545,0.2434387,11.09643,8.956327,-92.90039,72.20681,71.7259,26,0.0.0.0,10.137.250.93,1,0
2013-11-14 08:48:52.493,641,19.23,52.37598,4.918326,0.6419029,0.3950913,-1,9.5,5,1384415266,-0.4336243,-0.8522949,0.2755585,9.113613,10.71133,-96.57539,62.8706,62.38969,26,0.0.0.0,10.137.250.93,1,0
