time,timestamp,recordtime,lat,long,alt,speed,course,verticalAccuracy,horizontalAccuracy,locTimeStamp,accelerationX,accelerationY,accelerationZ,HeadingX,HeadingY,HeadingZ,TrueHeading,MagneticHeading,HeadingAccuracy,en0,pdp_ip0,DeviceOrientation,Event
2013-11-13 08:51:23.212,1,0.03,52.37608,4.91822,0,0,-1,17.29746,10,1384329068,-0.07475281,-0.4531555,-0.9527283,8.032764,-27.50624,-42.33479,243.1842,242.7053,25,0.0.0.0,10.139.130.79,5,0
2013-11-13 08:51:23.479,2,0.06,52.37608,4.91822,0,0,-1,16.90833,10,1384329069,-0.07475281,-0.4531555,-0.9527283,7.261673,-27.61593,-44.7465,243.3155,242.8366,25,0.0.0.0,10.139.130.79,5,0
2013-11-13 08:51:23.574,3,0.09,52.37608,4.91822,0,0,-1,16.90833,10,1384329069,-0.08743286,-0.451355,-0.8894958,8.198002,-27.56108,-44.80392,243.5585,243.0795,25,0.0.0.0,10.139.130.79,5,0
2013-11-13 08:51:23.646,4,0.12,52.37608,4.91822,0,0,-1,16.90833,10,1384329069,-0.07096863,-0.4625244,-0.8991241,7.151516,-27.94499,-44.97619,243.7068,243.2279,25,0.0.0.0,10.139.130.79,5,0
2013-11-13 08:51:23.786,5,0.15,52.37608,4.91822,0,0,-1,16.90833,10,1384329069,-0.08082581,-0.4542084,-0.8651123,7.481983,-27.50624,-45.55041,247.5066,247.0276,25,0.0.0.0,10.139.130.79,5,0
2013-11-13 08:51:23.881,6,0.18,52.37608,4.91822,0,0,-1,16.90833,10,1384329069,-0.06845093,-0.4479218,-0.8991394,7.647221,-27.23202,-45.49299,248.7306,248.2517,25,0.0.0.0,10.139.130.79,5,0
2013-11-13 08:51:23.975,7,0.21,52.37608,4.91822,0,0,-1,16.90833,10,1384329069,-0.06384277,-0.4411774,-0.9011078,6.986282,-26.79327,-45.49299,249.4008,248.9218,25,0.0.0.0,10.139.130.79,5,0
2013-11-13 08:51:24.073,8,0.24,52.37608,4.91822,0,0,-1,16.90833,10,1384329069,-0.06932068,-0.4451904,-0.9254608,7.481983,-27.17718,-44.7465,249.3996,248.9207,25,0.0.0.0,10.139.130.79,5,0
2013-11-13 08:51:24.176,9,0.27,52.37608,4.91822,0,0,-1,16.90833,10,1384329069,-0.07780457,-0.4573822,-0.8865204,7.537064,-26.90296,-45.60783,249.4462,248.9673,25,0.0.0.0,10.139.130.79,5,0
2013-11-13 08:51:24.305,10,0.3,52.37608,4.91822,0,0,-1,16.90833,10,1384329069,-0.07794189,-0.450592,-0.8904266,6.876125,-27.01265,-45.03361,249.3994,248.9205,25,0.0.0.0,10.139.130.79,5,0
2013-11-13 08:51:24.520,11,0.33,52.37608,4.91822,0,0,-1,16.90833,10,1384329069,-0.08093262,-0.4446106,-0.8865509,7.757374,-26.68358,-44.57423,249.2751,248.7962,25,0.0.0.0,10.139.130.79,5,0
2013-11-13 08:51:24.606,12,0.36,52.37608,4.91822,0,0,-1,16.90833,10,1384329069,-0.08860779,-0.4462128,-0.8632202,8.142921,-26.62874,-44.7465,249.2312,248.7523,25,0.0.0.0,10.139.130.79,5,0
2013-11-13 08:51:24.651,13,0.39,52.37608,4.91822,0,0,-1,16.90833,10,1384329069,-0.08860779,-0.4462128,-0.8632202,8.473392,-26.62874,-44.51682,249.1967,248.7178,25,0.0.0.0,10.139.130.79,5,0
2013-11-13 08:51:24.755,14,0.42,52.37608,4.91822,0,0,-1,16.294,10,1384329070,-0.07974243,-0.4516449,-0.904068,7.59214,-27.17718,-45.32072,249.1691,248.6902,25,0.0.0.0,10.139.130.79,5,0
2013-11-13 08:51:24.892,15,0.45,52.37608,4.91822,0,0,-1,16.294,10,1384329070,-0.05754089,-0.4686432,-0.89711,8.032764,-27.17718,-45.20588,249.1864,248.7074,25,0.0.0.0,10.139.130.79,4,0
2013-11-13 08:51:24.977,16,0.48,52.37608,4.91822,0,0,-1,16.294,10,1384329070,-0.06872559,-0.480011,-0.8825226,8.363235,-27.28687,-43.82775,249.1362,248.6573,25,0.0.0.0,10.139.130.79,4,0
2013-11-13 08:51:25.101,17,0.51,52.37608,4.91822,0,0,-1,16.294,10,1384329070,-0.0677948,-0.4809723,-0.8796082,7.647221,-27.99983,-44.68908,249.0335,248.5546,25,0.0.0.0,10.139.130.79,4,0
2013-11-13 08:51:25.182,18,0.54,52.37608,4.91822,0,0,-1,16.294,10,1384329070,-0.04927063,-0.4971771,-0.9008942,7.812454,-27.39655,-44.28712,247.1687,246.6898,25,0.0.0.0,10.139.130.79,4,0
2013-11-13 08:51:25.279,19,0.57,52.37608,4.91822,0,0,-1,16.294,10,1384329070,-0.0430603,-0.4833069,-0.8668518,11.44761,-26.51905,-42.44962,239.989,239.5101,25,0.0.0.0,10.139.130.79,4,0
2013-11-13 08:51:25.556,20,0.6,52.37608,4.91822,0,0,-1,16.294,10,1384329070,-0.02967834,-0.4883881,-0.8580017,17.78159,-20.10235,-40.66955,233.6128,233.1339,25,0.0.0.0,10.139.130.79,4,0
2013-11-13 08:51:25.670,21,0.63,52.37608,4.91822,0,0,-1,16.294,10,1384329070,-0.009063721,-0.5105896,-0.8899994,16.29449,-15.00188,-41.0715,235.2893,234.8104,25,0.0.0.0,10.139.130.79,4,0
2013-11-13 08:51:25.842,22,0.66,52.37608,4.91822,0,0,-1,16.294,10,1384329070,-0.008346558,-0.5419159,-0.8947754,14.86245,-9.517505,-39.69337,244.4931,244.0141,25,0.0.0.0,10.139.130.79,4,0
2013-11-13 08:51:25.941,23,0.69,52.37608,4.91822,0,0,-1,16.294,10,1384329070,-0.0327301,-0.5131683,-0.903717,11.28238,-3.649221,-37.68361,248.7903,248.3113,25,0.0.0.0,10.139.130.79,4,0
2013-11-13 08:51:26.045,24,0.72,52.37608,4.91822,0,0,-1,16.294,10,1384329070,-0.0327301,-0.5131683,-0.903717,5.994877,-1.016724,-37.22424,248.4996,248.0207,25,0.0.0.0,10.139.130.79,4,0
2013-11-13 08:51:26.153,25,0.75,52.37608,4.91822,0,0,-1,16.294,10,1384329070,0.01419067,-0.4801483,-0.9328308,-0.7797356,1.670618,-37.05197,247.63,247.151,25,0.0.0.0,10.139.130.79,4,0
2013-11-13 08:51:26.228,26,0.78,52.37608,4.91822,0,0,-1,16.294,10,1384329070,0.1597443,-0.5306854,-0.9058533,-7.168797,3.206244,-34.98478,253.8661,253.3872,25,0.0.0.0,10.139.130.79,4,0
2013-11-13 08:51:26.656,27,0.81,52.37608,4.91822,0,0,-1,16.294,10,1384329070,0.2113342,-0.5881805,-0.8821259,-12.23598,4.08375,-33.95119,248.564,248.085,25,0.0.0.0,10.139.130.79,4,0
2013-11-13 08:51:26.925,28,0.84,52.37608,4.91822,0,0,-1,15.11542,10,1384329071,0.1212158,-0.5588989,-0.8659973,-11.63012,4.796717,-33.08986,252.6541,252.1752,25,0.0.0.0,10.139.130.79,4,0
2013-11-13 08:51:27.091,29,0.87,52.37608,4.91822,0,0,-1,15.11542,10,1384329071,0.09535217,-0.558075,-0.8329926,-12.40122,2.602966,-35.15705,240.2942,239.8153,25,0.0.0.0,10.139.130.79,4,0
2013-11-13 08:51:27.214,30,0.9,52.37608,4.91822,0,0,-1,15.11542,10,1384329071,0.1028748,-0.5496216,-0.8553925,-11.46489,-1.181253,-38.54494,228.9675,228.4886,25,0.0.0.0,10.139.130.79,4,0
2013-11-13 08:51:27.573,31,0.93,52.37608,4.91822,0,0,-1,15.11542,10,1384329071,0.1381378,-0.561676,-0.8133545,-12.84184,-11.98547,-43.77033,210.0979,209.619,25,0.0.0.0,10.139.130.79,4,0
2013-11-13 08:51:27.671,32,0.96,52.37608,4.91822,0,0,-1,15.11542,10,1384329071,0.2098083,-0.5880127,-0.7574921,-11.79536,-15.11157,-45.20588,205.7183,205.2394,25,0.0.0.0,10.139.130.79,4,0
2013-11-13 08:51:27.830,33,0.9899999,52.37608,4.91822,0,0,-1,15.11542,10,1384329071,0.2376862,-0.5900726,-0.8148346,-10.25317,-22.02187,-46.92854,198.9761,198.4971,25,0.0.0.0,10.139.130.79,4,0
2013-11-13 08:51:27.967,34,1.02,52.37608,4.91822,0,0,-1,15.11542,10,1384329071,0.2552643,-0.5641937,-0.8333282,-9.426998,-26.35452,-48.36408,194.6562,194.1772,25,0.0.0.0,10.139.130.79,4,0
2013-11-13 08:51:28.089,35,1.05,52.37608,4.91822,0,0,-1,15.11542,10,1384329071,0.2552643,-0.5641937,-0.8333282,-8.600826,-29.69999,-47.50275,189.8933,189.4144,25,0.0.0.0,10.139.130.79,4,0
2013-11-13 08:51:28.203,36,1.08,52.37608,4.91822,0,0,-1,15.11542,10,1384329071,0.2353668,-0.587326,-0.733078,-5.020748,-37.32327,-45.2633,180.7037,180.2248,25,0.0.0.0,10.139.130.79,1,0
2013-11-13 08:51:28.509,37,1.11,52.37608,4.91822,0,0,-1,15.11542,10,1384329071,0.2353668,-0.587326,-0.733078,-4.194576,-40.22999,-42.79416,177.6652,177.1863,25,0.0.0.0,10.139.130.79,1,0
2013-11-13 08:51:28.695,38,1.14,52.37608,4.91822,0,0,-1,15.11542,10,1384329071,0.3439026,-0.5896606,-0.7530823,-1.991451,-39.90092,-42.33479,176.856,176.3771,25,0.0.0.0,10.139.130.79,1,0
2013-11-13 08:51:28.873,39,1.17,52.37608,4.91822,0,0,-1,13.20247,10,1384329072,0.2993927,-0.59758,-0.7532349,0.9827652,-40.55905,-41.8754,178.3572,177.8783,25,0.0.0.0,10.139.130.79,3,0
2013-11-13 08:51:29.003,40,1.2,52.37608,4.91822,0,0,-1,13.20247,10,1384329072,0.2993927,-0.59758,-0.7532349,3.406204,-40.01062,-40.95666,180.9653,180.4864,25,0.0.0.0,10.139.130.79,3,0
2013-11-13 08:51:29.133,41,1.23,52.37608,4.91822,0,0,-1,13.20247,10,1384329072,0.2434998,-0.7062378,-0.6811066,4.783157,-40.83327,-39.29142,182.0472,181.5683,25,0.0.0.0,10.139.130.79,3,0
2013-11-13 08:51:29.262,42,1.26,52.37608,4.91822,0,0,-1,13.20247,10,1384329072,0.2434998,-0.7062378,-0.6811066,4.562843,-40.50421,-39.98048,182.1366,181.6576,25,0.0.0.0,10.139.130.79,3,0
2013-11-13 08:51:29.525,43,1.29,52.37608,4.91822,0,0,-1,13.20247,10,1384329072,0.3600006,-0.631012,-0.533844,5.389015,-40.1203,-40.26759,190.3978,189.9189,25,0.0.0.0,10.139.130.79,3,0
2013-11-13 08:51:29.764,44,1.32,52.37608,4.91822,0,0,-1,13.20247,10,1384329072,0.3420868,-0.6598663,-0.6321869,6.931202,-40.55906,-38.43009,188.0161,187.5372,25,0.0.0.0,10.139.130.79,3,0
2013-11-13 08:51:30.160,45,1.35,52.37608,4.91822,0,0,-1,13.20247,10,1384329072,0.3065186,-0.6304016,-0.6927643,9.07925,-41.93015,-38.25783,186.1202,185.6412,25,0.0.0.0,10.139.130.79,3,0
2013-11-13 08:51:30.596,46,1.38,52.37608,4.91822,0,0,-1,13.20247,10,1384329072,0.3087769,-0.6479797,-0.6849213,8.858936,-41.60108,-37.79845,184.3418,183.8629,25,0.0.0.0,10.139.130.79,3,0
2013-11-13 08:51:30.948,47,1.41,52.37608,4.91822,0,0,-1,13.20247,10,1384329072,0.3913422,-0.6660767,-0.5608978,5.829639,-44.5078,-36.93713,188.4088,187.9299,25,0.0.0.0,10.139.130.79,3,0
2013-11-13 08:51:31.097,48,1.44,52.37608,4.91822,0,0,-1,13.20247,10,1384329072,0.3913422,-0.6660767,-0.5608978,4.342533,-46.53702,-36.0758,190.992,190.5131,25,0.0.0.0,10.139.130.79,3,0
2013-11-13 08:51:31.224,49,1.47,52.37608,4.91822,0,0,-1,11.9039,10,1384329073,0.3542328,-0.5924225,-0.7101746,1.808937,-49.93734,-33.89377,195.842,195.3631,25,0.0.0.0,10.139.130.79,3,0
2013-11-13 08:51:31.486,50,1.5,52.37608,4.91822,0,0,-1,11.9039,10,1384329073,0.3542328,-0.5924225,-0.7101746,1.423389,-53.06343,-31.42463,202.2006,201.7216,25,0.0.0.0,10.139.130.79,3,0
2013-11-13 08:51:31.620,51,1.53,52.37608,4.91822,0,0,-1,11.9039,10,1384329073,0.3294525,-0.5656586,-0.8320618,2.139408,-53.44733,-31.82658,207.1209,206.642,25,0.0.0.0,10.139.130.79,3,0
2013-11-13 08:51:31.816,52,1.56,52.37608,4.91822,0,0,-1,11.9039,10,1384329073,0.352356,-0.5783997,-0.7861786,4.342533,-50.81483,-33.43439,215.283,214.804,25,0.0.0.0,10.139.130.79,3,0
2013-11-13 08:51:31.967,53,1.59,52.37608,4.91822,0,0,-1,11.9039,10,1384329073,0.384613,-0.5845032,-0.7402802,5.829639,-49.66312,-33.49181,217.9389,217.46,25,0.0.0.0,10.139.130.79,3,0
2013-11-13 08:51:32.134,54,1.62,52.37608,4.91822,0,0,-1,11.9039,10,1384329073,0.3711395,-0.5764008,-0.7393646,5.829639,-46.70155,-36.36291,221.1185,220.6396,25,0.0.0.0,10.139.130.79,3,0
2013-11-13 08:51:32.231,55,1.65,52.37608,4.91822,0,0,-1,11.9039,10,1384329073,0.332962,-0.565155,-0.7687683,5.609329,-42.31406,-39.69337,226.5031,226.0242,25,0.0.0.0,10.139.130.79,3,0
2013-11-13 08:51:32.463,56,1.68,52.37608,4.91822,0,0,-1,11.9039,10,1384329073,0.2858124,-0.5370026,-0.7855835,9.850346,-34.69077,-42.27736,238.9132,238.4343,25,0.0.0.0,10.139.130.79,3,0
2013-11-13 08:51:32.571,57,1.71,52.37608,4.91822,0,0,-1,11.9039,10,1384329073,0.2858124,-0.5370026,-0.7855835,9.134327,-32.88093,-43.71291,244.1162,243.6373,25,0.0.0.0,10.139.130.79,3,0
2013-11-13 08:51:32.695,58,1.74,52.37608,4.91822,0,0,-1,11.9039,10,1384329073,0.2296753,-0.5227814,-0.8500824,8.198002,-31.18077,-44.45939,249.1391,248.6602,25,0.0.0.0,10.139.130.79,3,0
2013-11-13 08:51:32.802,59,1.77,52.37608,4.91822,0,0,-1,11.9039,10,1384329073,0.2296753,-0.5227814,-0.8500824,7.31675,-30.41296,-44.00002,251.0907,250.6118,25,0.0.0.0,10.139.130.79,3,0
2013-11-13 08:51:32.911,60,1.8,52.37608,4.91822,0,0,-1,11.9039,10,1384329073,0.2298279,-0.5221252,-0.8851318,6.380421,-29.04186,-44.51682,252.1713,251.6924,25,0.0.0.0,10.139.130.79,3,0
2013-11-13 08:51:33.039,61,1.83,52.37608,4.91822,0,0,-1,11.9039,10,1384329073,0.2086639,-0.510025,-0.8891296,15.75994,-6.360591,-37.93716,300.5629,300.084,25,0.0.0.0,10.139.130.79,3,0
2013-11-13 08:51:33.187,62,1.86,52.37608,4.91822,0,0,-1,11.57223,10,1384329074,0.1772919,-0.5113525,-0.8892517,14.8787,-6.250906,-38.2817,301.5997,301.1208,25,0.0.0.0,10.139.130.79,3,0
2013-11-13 08:51:33.365,63,1.89,52.37608,4.91822,0,0,-1,11.57223,10,1384329074,0.1647034,-0.5078735,-0.8562317,16.03533,-4.550756,-37.30554,302.7994,302.3205,25,0.0.0.0,10.139.130.79,3,0
2013-11-13 08:51:33.531,64,1.92,52.37608,4.91822,0,0,-1,11.57223,10,1384329074,0.1627808,-0.5002594,-0.8854523,16.53102,-3.72811,-38.39654,304.6764,304.1975,25,0.0.0.0,10.139.130.79,3,0
2013-11-13 08:51:33.657,65,1.95,52.37608,4.91822,0,0,-1,11.57223,10,1384329074,0.1627808,-0.5002594,-0.8854523,17.30211,-4.166856,-38.39654,304.0346,303.5557,25,0.0.0.0,10.139.130.79,3,0
2013-11-13 08:51:33.737,66,1.98,52.37608,4.91822,0,0,-1,11.57223,10,1384329074,0.1139679,-0.4866333,-0.8895721,17.46734,-4.660448,-37.07586,302.4286,301.9497,25,0.0.0.0,10.139.130.79,3,0
2013-11-13 08:51:33.855,67,2.01,52.37608,4.91822,0,0,-1,11.57223,10,1384329074,0.1139679,-0.4866333,-0.8895721,17.46734,-4.441076,-37.1907,302.5249,302.046,25,0.0.0.0,10.139.130.79,3,0
2013-11-13 08:51:33.931,68,2.04,52.37608,4.91822,0,0,-1,11.57223,10,1384329074,0.1128845,-0.4816284,-0.878891,18.12827,-4.770133,-36.73134,301.1149,300.636,25,0.0.0.0,10.139.130.79,3,0
2013-11-13 08:51:34.050,69,2.07,52.37608,4.91822,0,0,-1,11.57223,10,1384329074,0.1112976,-0.4972076,-0.874939,17.90796,-5.099191,-38.33911,301.9203,301.4414,25,0.0.0.0,10.139.130.79,3,0
2013-11-13 08:51:34.657,70,2.1,52.37608,4.91822,0,0,-1,11.57223,10,1384329074,0.09411621,-0.4958496,-0.8711243,19.78315,-4.945116,-38.61995,301.0706,300.5917,25,0.0.0.0,10.139.130.79,3,0
2013-11-13 08:51:34.964,71,2.13,52.37608,4.91822,0,0,-1,12.07328,10,1384329075,0.09016418,-0.4879608,-0.8740997,18.68161,-5.603238,-37.9309,300.6273,300.1484,25,0.0.0.0,10.139.130.79,3,0
2013-11-13 08:51:35.449,72,2.16,52.37608,4.91822,0,0,-1,12.07328,10,1384329075,0.08435059,-0.4820404,-0.8789978,19.673,-5.603238,-37.70123,300.1445,299.6656,25,0.0.0.0,10.139.130.79,3,0
2013-11-13 08:51:35.552,73,2.19,52.37608,4.91822,0,0,-1,12.07328,10,1384329075,0.07649231,-0.4729919,-0.8683319,20.71946,-5.877452,-37.87348,299.7309,299.252,25,0.0.0.0,10.139.130.79,3,0
2013-11-13 08:51:35.663,74,2.22,52.37608,4.91822,0,0,-1,12.07328,10,1384329075,0.05775452,-0.4824829,-0.8791046,20.05854,-6.206511,-37.29928,299.4658,298.9868,25,0.0.0.0,10.139.130.79,3,0
2013-11-13 08:51:35.839,75,2.25,52.37608,4.91822,0,0,-1,12.07328,10,1384329075,0.04878235,-0.5067749,-0.8819885,20.13192,-8.122419,-35.72723,298.5443,298.0653,25,0.0.0.0,10.139.130.79,3,0
2013-11-13 08:51:35.951,76,2.28,52.37608,4.91822,0,0,-1,12.07328,10,1384329075,0.04878235,-0.5067749,-0.8819885,18.47963,-8.341789,-35.26787,297.9648,297.4859,25,0.0.0.0,10.139.130.79,3,0
2013-11-13 08:51:36.066,77,2.31,52.37608,4.91822,0,0,-1,12.07328,10,1384329075,0.0836792,-0.494751,-0.8809357,16.60702,-9.658022,-34.57882,297.5947,297.1158,25,0.0.0.0,10.139.130.79,3,0
2013-11-13 08:51:36.169,78,2.34,52.37608,4.91822,0,0,-1,12.07328,10,1384329075,0.07955933,-0.4772186,-0.8955994,15.50549,-8.999901,-35.72723,297.0973,296.6184,25,0.0.0.0,10.139.130.79,3,0
2013-11-13 08:51:36.261,79,2.37,52.37608,4.91822,0,0,-1,12.07328,10,1384329075,0.05474854,-0.4728394,-0.8985901,15.0098,-8.945059,-36.47369,296.9099,296.431,25,0.0.0.0,10.139.130.79,3,0
2013-11-13 08:51:36.500,80,2.4,52.37608,4.91822,0,0,-1,12.07328,10,1384329075,0.03842163,-0.4665985,-0.8928375,15.11995,-8.177259,-36.47369,296.7287,296.2498,25,0.0.0.0,10.139.130.79,3,0
2013-11-13 08:51:36.591,81,2.43,52.37608,4.91822,0,0,-1,12.07328,10,1384329075,0.06910706,-0.475174,-0.9102325,13.85319,-8.780531,-35.95692,296.6464,296.1675,25,0.0.0.0,10.139.130.79,3,0
2013-11-13 08:51:36.784,82,2.46,52.37608,4.91822,0,0,-1,12.07328,10,1384329075,0.06910706,-0.475174,-0.9102325,14.2938,-9.767706,-35.03818,291.738,291.2591,25,0.0.0.0,10.139.130.79,3,0
2013-11-13 08:51:36.963,83,2.49,52.37608,4.91822,0,0,-1,12.70219,10,1384329076,0.0630188,-0.4602966,-0.8986053,15.0098,-9.712864,-35.78465,295.9473,295.4684,25,0.0.0.0,10.139.130.79,3,0
2013-11-13 08:51:37.130,84,2.52,52.37608,4.91822,0,0,-1,12.70219,10,1384329076,0.0630188,-0.4602966,-0.8986053,16.13704,-10.66491,-34.75498,299.2002,298.7213,25,0.0.0.0,10.139.130.79,3,0
2013-11-13 08:51:37.262,85,2.55,52.37608,4.91822,0,0,-1,12.70219,10,1384329076,0.03829956,-0.457962,-0.9104004,19.4416,-7.813112,-33.60658,293.8018,293.3229,25,0.0.0.0,10.139.130.79,3,0
2013-11-13 08:51:37.813,86,2.58,52.37608,4.91822,0,0,-1,12.70219,10,1384329076,0.05172729,-0.463089,-0.9074097,20.5982,7.158835,-32.97495,298.0764,297.5975,25,0.0.0.0,10.139.130.79,3,0
2013-11-13 08:51:38.459,87,2.61,52.37608,4.91822,0,0,-1,12.70219,10,1384329076,0.06202698,-0.4582825,-0.8937531,17.33229,8.221742,-32.2882,296.91,296.4311,25,0.0.0.0,10.139.130.79,5,0
2013-11-13 08:51:38.679,88,2.64,52.37608,4.91822,0,0,-1,12.70219,10,1384329076,0.03915405,-0.458725,-0.8850861,13.09142,14.41879,-33.14951,309.6273,309.1483,25,0.0.0.0,10.139.130.79,3,0
2013-11-13 08:51:38.959,89,2.67,52.37608,4.91822,0,0,-1,12.70219,10,1384329076,0.03771973,-0.4735565,-0.9093781,8.409946,17.76409,-33.55145,318.6088,318.1299,25,0.0.0.0,10.139.130.79,3,0
2013-11-13 08:51:39.107,90,2.7,52.37608,4.91822,0,0,-1,12.70219,10,1384329076,0.03771973,-0.4735565,-0.9093781,6.922886,18.47702,-32.91982,319.8175,319.3386,25,0.0.0.0,10.139.130.79,3,0
2013-11-13 08:51:39.188,91,2.73,52.37608,4.91822,0,0,-1,12.70219,10,1384329076,0.03604126,-0.4842987,-0.9103394,7.363499,18.36734,-33.60887,317.6418,317.1629,25,0.0.0.0,10.139.130.79,3,0
2013-11-13 08:51:39.293,92,2.76,52.37608,4.91822,0,0,-1,12.70219,10,1384329076,0.03604126,-0.4842987,-0.9103394,4.774918,16.66726,-33.43661,316.9808,316.5019,25,0.0.0.0,10.139.130.79,3,0
2013-11-13 08:51:39.554,93,2.79,52.37608,4.91822,0,0,-1,12.70219,10,1384329076,0.04353333,-0.4823456,-0.8937683,5.876354,15.16955,-36.82558,314.1294,313.6505,25,0.0.0.0,10.139.130.79,3,0
2013-11-13 08:51:39.724,94,2.82,52.37608,4.91822,0,0,-1,12.51803,10,1384329077,0.02703857,-0.4683075,-0.8899536,1.415176,0.9661222,-40.44308,289.1113,288.6324,25,0.0.0.0,10.139.130.79,3,0
2013-11-13 08:51:39.869,95,2.85,52.37608,4.91822,0,0,-1,12.51803,10,1384329077,0.02703857,-0.4683075,-0.8899536,-7.794071,-10.04736,-42.13515,277.7711,277.2922,25,0.0.0.0,10.139.130.79,3,0
2013-11-13 08:51:40.025,96,2.88,52.37608,4.91822,0,0,-1,12.51803,10,1384329077,0.0382843,-0.462616,-0.8840942,-7.792168,-11.54287,-41.22892,266.5576,266.0787,25,0.0.0.0,10.139.130.79,5,0
2013-11-13 08:51:40.281,97,2.91,52.37608,4.91822,0,0,-1,12.51803,10,1384329077,0.03555298,-0.467453,-0.8850708,2.89275,-12.52998,-39.50633,267.2203,266.7414,25,0.0.0.0,10.139.130.79,5,0
2013-11-13 08:51:40.990,98,2.94,52.37608,4.91822,0,0,-1,12.51803,10,1384329077,0.02893066,-0.4692535,-0.8841248,25.91488,-15.38159,-31.58244,264.8132,264.3343,25,0.0.0.0,10.139.130.79,5,0
2013-11-13 08:51:41.218,99,2.97,52.37608,4.91822,0,0,-1,12.51803,10,1384329077,0.02893066,-0.4692535,-0.8841248,34.04527,-19.06524,-19.59776,266.5727,266.0938,25,0.0.0.0,10.139.130.79,5,0
2013-11-13 08:51:41.462,100,3,52.37608,4.91822,0,0,-1,12.44006,10,1384329078,0.03482056,-0.4687958,-0.927887,30.75939,-32.21848,-7.711639,247.3414,246.8625,25,0.0.0.0,10.139.130.79,5,0
2013-11-13 08:51:41.562,101,3.03,52.37608,4.91822,0,0,-1,12.44006,10,1384329078,0.04133606,-0.4639435,-0.9181671,39.31354,-27.02468,-10.42964,277.0933,276.6144,15,0.0.0.0,10.139.130.79,5,0
2013-11-13 08:51:41.714,102,3.06,52.37608,4.91822,0,0,-1,12.44006,10,1384329078,0.04142761,-0.4697418,-0.9103699,43.66243,-6.403095,-12.30522,326.3103,325.8314,15,0.0.0.0,10.139.130.79,5,0
2013-11-13 08:51:42.018,103,3.09,52.37608,4.91822,0,0,-1,12.44006,10,1384329078,0.0110321,-0.474823,-0.8899994,28.07685,22.33881,-12.11491,34.98281,34.50389,15,0.0.0.0,10.139.130.79,5,0
2013-11-13 08:51:42.131,104,3.12,52.37608,4.91822,0,0,-1,12.44006,10,1384329078,0.034729,-0.4704895,-0.8986816,14.92027,27.14815,-13.0467,56.18257,55.70365,10,0.0.0.0,10.139.130.79,5,0
2013-11-13 08:51:42.261,105,3.15,52.37608,4.91822,0,0,-1,12.44006,10,1384329078,0.04014587,-0.4578552,-0.8957977,11.61625,25.39346,-9.601143,52.83933,52.3604,10,0.0.0.0,10.139.130.79,5,0
2013-11-13 08:51:42.509,106,3.18,52.37608,4.91822,0,0,-1,11.75426,10,1384329079,0.02775574,-0.46138,-0.8782959,10.07437,21.55507,-8.912033,57.46953,56.99061,10,0.0.0.0,10.139.130.79,5,0
2013-11-13 08:51:42.641,107,3.21,52.37608,4.91822,0,0,-1,11.75426,10,1384329079,0.002166748,-0.4628448,-0.8813324,16.13174,14.42663,-12.70215,72.5129,72.03398,10,0.0.0.0,10.139.130.79,5,0
2013-11-13 08:51:42.740,108,3.24,52.37608,4.91822,0,0,-1,11.75426,10,1384329079,0.04048157,-0.4707031,-0.9103699,16.0216,11.13658,-13.62096,82.12682,81.6479,10,0.0.0.0,10.139.130.79,5,0
2013-11-13 08:51:42.842,109,3.27,52.37608,4.91822,0,0,-1,11.75426,10,1384329079,0.03948975,-0.4687195,-0.9093781,16.13174,7.407862,-14.08037,91.51608,91.03716,10,0.0.0.0,10.139.130.79,5,0
2013-11-13 08:51:42.952,110,3.3,52.37608,4.91822,0,0,-1,11.75426,10,1384329079,0.01750183,-0.4689941,-0.8802643,11.94664,2.143787,-14.65462,100.7373,100.2583,10,0.0.0.0,10.139.130.79,5,0
2013-11-13 08:51:43.081,111,3.33,52.37608,4.91822,0,0,-1,11.75426,10,1384329079,0.0118866,-0.4709015,-0.8880768,11.01051,-1.091419,-15.63087,78.23948,77.76056,11,0.0.0.0,10.139.130.79,5,0
2013-11-13 08:51:43.179,112,3.36,52.37608,4.91822,0,0,-1,11.75426,10,1384329079,0.04243469,-0.4689636,-0.9298096,12.11185,-2.626773,-15.86057,75.69004,75.21112,11,0.0.0.0,10.139.130.79,5,0
2013-11-13 08:51:43.296,113,3.39,52.37608,4.91822,0,0,-1,11.75426,10,1384329079,0.04243469,-0.4689636,-0.9298096,10.6801,-4.929806,-16.77939,73.64967,73.17075,11,0.0.0.0,10.139.130.79,5,0
2013-11-13 08:51:43.548,114,3.42,52.37608,4.91822,0,0,-1,11.75426,10,1384329079,0.006393433,-0.4786835,-0.8939209,8.091957,-8.494026,-21.20119,74.79517,74.31625,11,0.0.0.0,10.139.130.79,5,0
2013-11-13 08:51:43.646,115,3.45,52.37608,4.91822,0,0,-1,11.75426,10,1384329079,0.006393433,-0.4786835,-0.8939209,6.38488,-8.110185,-21.60317,76.81744,76.33852,11,0.0.0.0,10.139.130.79,5,0
2013-11-13 08:51:43.768,116,3.48,52.37608,4.91822,0,0,-1,11.75426,10,1384329079,0.001556396,-0.4793396,-0.870575,8.147026,-8.000518,-22.06258,78.27874,77.79982,11,0.0.0.0,10.139.130.79,5,0
2013-11-13 08:51:43.854,117,3.51,52.37608,4.91822,0,0,-1,11.75426,10,1384329079,-0.007858276,-0.4821472,-0.8774261,7.210884,-6.849004,-21.77544,79.07365,78.59473,11,0.0.0.0,10.139.130.79,5,0
2013-11-13 08:51:43.974,118,3.54,52.37608,4.91822,0,0,-1,11.39094,10,1384329080,-0.01237488,-0.4872437,-0.9105377,8.587559,-7.452179,-22.29227,79.20838,78.72946,11,0.0.0.0,10.139.130.79,5,0
2013-11-13 08:51:44.101,119,3.57,52.37608,4.91822,0,0,-1,11.39094,10,1384329080,0.007278442,-0.4720154,-0.9133759,8.642624,-7.726347,-22.80911,79.24839,78.76947,11,0.0.0.0,10.139.130.79,5,0
2013-11-13 08:51:44.220,120,3.6,52.37608,4.91822,0,0,-1,11.39094,10,1384329080,0.008926392,-0.4659576,-0.888092,8.36729,-7.781183,-22.86654,79.20161,78.72269,11,0.0.0.0,10.139.130.79,5,0
2013-11-13 08:51:44.299,121,3.63,52.37608,4.91822,0,0,-1,11.39094,10,1384329080,-0.02973938,-0.4835815,-0.8677521,6.219681,-7.068338,-23.38337,78.21754,77.73862,11,0.0.0.0,10.139.130.79,5,0
2013-11-13 08:51:44.509,122,3.66,52.37608,4.91822,0,0,-1,11.39094,10,1384329080,-0.009475708,-0.4901581,-0.9007568,6.219681,-6.41033,-22.69426,75.6917,75.21278,11,0.0.0.0,10.139.130.79,5,0
2013-11-13 08:51:44.622,123,3.69,52.37608,4.91822,0,0,-1,11.39094,10,1384329080,0.0140686,-0.4752502,-0.9328461,3.246059,-5.094313,-27.40319,67.56845,67.08953,11,0.0.0.0,10.139.130.79,5,0
2013-11-13 08:51:44.746,124,3.72,52.37608,4.91822,0,0,-1,11.39094,10,1384329080,0.0140686,-0.4752502,-0.9328461,2.36499,0.2794315,-31.76756,61.35619,60.87726,11,0.0.0.0,10.139.130.79,5,0
2013-11-13 08:51:44.868,125,3.75,52.37608,4.91822,0,0,-1,11.39094,10,1384329080,0.0223999,-0.4684448,-0.9152832,3.466331,20.01972,-33.26064,47.68093,47.20201,11,0.0.0.0,10.139.130.79,5,0
2013-11-13 08:51:44.965,126,3.78,52.37608,4.91822,0,0,-1,11.39094,10,1384329080,-0.003601074,-0.4616241,-0.8677063,8.807831,36.08612,-22.75169,41.69345,41.21452,11,0.0.0.0,10.139.130.79,1,0
2013-11-13 08:51:45.087,127,3.81,52.37608,4.91822,0,0,-1,11.39094,10,1384329080,-0.02398682,-0.4856415,-0.8677368,9.303429,37.89565,-16.95167,37.81855,37.33963,11,0.0.0.0,10.139.130.79,1,0
2013-11-13 08:51:45.240,128,3.84,52.37608,4.91822,0,0,-1,11.39094,10,1384329080,-0.02218628,-0.4817657,-0.8677368,8.036888,38.9375,-6.672424,16.57633,16.09741,11,0.0.0.0,10.139.130.79,1,0
2013-11-13 08:51:45.572,129,3.87,52.37608,4.91822,0,0,-1,10.80047,10,1384329081,-0.04478455,-0.4892273,-0.8765564,19.98643,47.54646,-4.317955,14.46456,13.98563,11,0.0.0.0,10.139.130.79,1,0
2013-11-13 08:51:45.747,130,3.9,52.37608,4.91822,0,0,-1,10.80047,10,1384329081,-0.04484558,-0.488205,-0.8707275,29.45795,48.75281,-8.912033,9.47544,8.996516,11,0.0.0.0,10.139.130.79,1,0
2013-11-13 08:51:46.283,131,3.93,52.37608,4.91822,0,0,-1,10.80047,10,1384329081,-0.03645325,-0.4768219,-0.8911591,41.57269,49.08182,-18.7893,4.774657,4.295733,11,0.0.0.0,10.139.130.79,1,0
2013-11-13 08:51:47.055,132,3.96,52.37608,4.91822,0,0,-1,10.80047,10,1384329081,-0.005859375,-0.4814301,-0.9027252,47.57499,40.47286,-34.69629,1.149152,0.6702285,11,0.0.0.0,10.139.130.79,1,0
2013-11-13 08:51:47.698,133,3.99,52.37608,4.91822,0,0,-1,10.37503,10,1384329082,0.001525879,-0.4746246,-0.8900452,42.39869,39.2665,-31.48043,2.015167,1.536243,11,0.0.0.0,10.139.130.79,5,0
2013-11-13 08:51:48.849,134,4.02,52.37608,4.91822,0,0,-1,10.37503,10,1384329082,-0.01065063,-0.4831696,-0.8890991,42.83923,37.29248,-34.58144,1.126834,0.6479104,11,0.0.0.0,10.139.130.79,5,0
2013-11-13 08:51:49.448,135,4.05,52.37608,4.91822,0,0,-1,10.37503,10,1384329082,-0.02583313,-0.4866943,-0.8784485,44.10577,34.16693,-28.0923,358.9765,358.4976,11,0.0.0.0,10.139.130.79,5,0
2013-11-13 08:51:49.896,136,4.08,52.37608,4.91822,0,0,-1,10.37503,10,1384329082,-0.01896667,-0.4965668,-0.8754578,43.50003,32.13806,-29.87251,358.7395,358.2606,11,0.0.0.0,10.139.130.79,5,0
2013-11-13 08:51:50.111,137,4.11,52.37608,4.91822,0,0,-1,10.37503,10,1384329082,-0.01821899,-0.4849396,-0.8862,35.68052,32.79607,-37.22302,0.06577656,359.5869,11,0.0.0.0,10.139.130.79,5,0
2013-11-13 08:51:50.350,138,4.14,52.37608,4.91822,0,0,-1,10.37503,10,1384329082,-0.0145874,-0.4772186,-0.8871765,30.17382,28.84802,-43.76958,0.2259938,359.7471,11,0.0.0.0,10.139.130.79,5,0
2013-11-13 08:51:50.700,139,4.17,52.37608,4.91822,0,0,-1,10.37503,10,1384329082,-0.032547,-0.4827118,-0.886261,2.640324,0.005260766,-58.58548,355.6992,355.2202,11,0.0.0.0,10.139.130.79,1,0
2013-11-13 08:51:50.965,140,4.2,52.37608,4.91822,0,0,-1,9.923607,10,1384329083,-0.001937866,-0.4901581,-0.8861237,-5.39946,-5.258811,-59.73401,356.3201,355.8412,11,0.0.0.0,10.139.130.79,1,0
2013-11-13 08:51:51.703,141,4.23,52.37608,4.91822,0,0,-1,9.923607,10,1384329083,0.002929688,-0.4970245,-0.8773499,30.33902,15.85232,-45.7795,357.3993,356.9204,11,0.0.0.0,10.139.130.79,1,0
2013-11-13 08:51:51.955,142,4.26,52.37608,4.91822,0,0,-1,9.923607,10,1384329083,0.008346558,-0.4825592,-0.887085,37.77306,13.27512,-37.22302,353.3104,352.8315,11,0.0.0.0,10.139.130.79,1,0
2013-11-13 08:51:52.144,143,4.29,52.37608,4.91822,0,0,-1,9.923607,10,1384329083,0.001464844,-0.4745026,-0.8774109,46.96925,11.46559,-26.25467,348.6003,348.1214,11,0.0.0.0,10.139.130.79,1,0
2013-11-13 08:51:52.304,144,4.32,52.37608,4.91822,0,0,-1,9.923607,10,1384329083,-0.003768921,-0.4930725,-0.8880768,46.14325,3.514644,-23.55565,344.9962,344.5173,11,0.0.0.0,10.139.130.79,1,0
2013-11-13 08:51:52.608,145,4.35,52.37608,4.91822,0,0,-1,9.923607,10,1384329083,-0.01600647,-0.4996185,-0.8832397,38.2136,-5.587818,-27.57546,333.5677,333.0888,11,0.0.0.0,10.139.130.79,1,0
2013-11-13 08:51:52.861,146,4.38,52.37608,4.91822,0,0,-1,9.923607,10,1384329083,0.01504517,-0.4828033,-0.8987274,37.60786,-0.4882472,-30.61904,334.9255,334.4466,11,0.0.0.0,10.139.130.79,1,0
2013-11-13 08:51:53.054,147,4.41,52.37608,4.91822,0,0,-1,9.923607,10,1384329083,0.001739502,-0.4815674,-0.9007416,49.00673,8.449707,-18.38731,335.0227,334.5438,11,0.0.0.0,10.139.130.79,1,0
2013-11-13 08:51:53.196,148,4.44,52.37608,4.91822,0,0,-1,10.38201,10,1384329084,-0.003067017,-0.4785461,-0.9017334,52.25568,12.4526,-10.86452,318.9599,318.481,10,0.0.0.0,10.139.130.79,1,0
2013-11-13 08:51:53.457,149,4.47,52.37608,4.91822,0,0,-1,10.38201,10,1384329084,-0.003860474,-0.4891663,-0.8880768,52.80635,12.56227,-6.500137,311.308,310.829,10,0.0.0.0,10.139.130.79,1,0
2013-11-13 08:51:53.581,150,4.5,52.37608,4.91822,0,0,-1,10.38201,10,1384329084,0.001998901,-0.4876709,-0.9279785,52.36582,16.29099,-9.601143,314.7522,314.2733,10,0.0.0.0,10.139.130.79,1,0
2013-11-13 08:51:53.711,151,4.53,52.37608,4.91822,0,0,-1,10.38201,10,1384329084,0.001998901,-0.4876709,-0.9279785,52.31075,20.29389,-10.11798,316.8077,316.3288,10,0.0.0.0,10.139.130.79,1,0
2013-11-13 08:51:53.830,152,4.56,52.37608,4.91822,0,0,-1,10.38201,10,1384329084,-0.02310181,-0.4818115,-0.8745575,53.30196,13.16545,-13.21898,318.714,318.2351,10,0.0.0.0,10.139.130.79,1,0
2013-11-13 08:51:53.974,153,4.59,52.37608,4.91822,0,0,-1,10.38201,10,1384329084,-0.01068115,-0.4840393,-0.8774261,53.63236,11.84943,-15.86057,319.9355,319.4565,10,0.0.0.0,10.139.130.79,1,0
2013-11-13 08:51:54.105,154,4.62,52.37608,4.91822,0,0,-1,10.38201,10,1384329084,-0.02130127,-0.4760742,-0.8823547,56.11037,17.27801,-14.65462,323.7796,323.3007,10,0.0.0.0,10.139.130.79,1,0
2013-11-13 08:51:54.248,155,4.65,52.37608,4.91822,0,0,-1,10.45637,10,1384329085,-0.01828003,-0.4829865,-0.8852386,57.92759,25.22896,-9.543724,330.1931,329.7142,10,0.0.0.0,10.139.130.79,1,0
2013-11-13 08:51:54.477,156,4.68,52.37608,4.91822,0,0,-1,10.45637,10,1384329085,-0.02946472,-0.487854,-0.9057007,58.80866,28.08034,-8.165497,355.0035,354.5246,11,0.0.0.0,10.139.130.79,1,0
2013-11-13 08:51:54.599,157,4.71,52.37608,4.91822,0,0,-1,10.45637,10,1384329085,-0.03437805,-0.4874725,-0.8755341,57.92759,29.61569,-9.658569,354.4234,353.9445,11,0.0.0.0,10.139.130.79,1,0
2013-11-13 08:51:54.727,158,4.74,52.37608,4.91822,0,0,-1,10.45637,10,1384329085,-0.01914978,-0.4840546,-0.8969116,57.92759,33.01541,-7.820946,356.35,355.8711,11,0.0.0.0,10.139.130.79,1,0
2013-11-13 08:51:54.861,159,4.77,52.37608,4.91822,0,0,-1,10.45637,10,1384329085,-0.02981567,-0.4768829,-0.88237,56.00024,31.97356,-4.662514,352.3349,351.856,11,0.0.0.0,10.139.130.79,1,0
2013-11-13 08:51:54.990,160,4.8,52.37608,4.91822,0,0,-1,10.45637,10,1384329085,-0.02679443,-0.4838409,-0.8901215,58.36812,28.73835,-12.30016,349.8662,349.3873,11,0.0.0.0,10.139.130.79,1,0
2013-11-13 08:51:55.130,161,4.83,52.37608,4.91822,0,0,-1,10.45637,10,1384329085,-0.01835632,-0.4762726,-0.8998718,54.01783,24.95479,-10.97937,329.1008,328.6219,11,0.0.0.0,10.139.130.79,1,0
2013-11-13 08:51:55.281,162,4.86,52.37608,4.91822,0,0,-1,10.45637,10,1384329085,-0.02980042,-0.473175,-0.9057465,49.83274,22.10341,-18.44474,327.0694,326.5905,11,0.0.0.0,10.139.130.79,3,0
2013-11-13 08:51:55.529,163,4.89,52.37608,4.91822,0,0,-1,10.45637,10,1384329085,-0.02508545,-0.4750977,-0.890152,35.12985,9.875401,-44.11414,318.206,317.7271,11,0.0.0.0,10.139.130.79,3,0
2013-11-13 08:51:55.712,164,4.92,52.37608,4.91822,0,0,-1,10.26198,10,1384329086,-0.04208374,-0.478714,-0.897995,28.52181,7.243364,-49.05277,318.1789,317.7,11,0.0.0.0,10.139.130.79,3,0
2013-11-13 08:51:55.887,165,4.95,52.37608,4.91822,0,0,-1,10.26198,10,1384329086,-0.04318237,-0.476532,-0.874649,51.81515,20.56806,-17.75563,323.0887,322.6097,11,0.0.0.0,10.139.130.79,3,0
2013-11-13 08:51:56.009,166,4.98,52.37608,4.91822,0,0,-1,10.26198,10,1384329086,-0.02963257,-0.4800568,-0.9086609,37.44267,30.16404,7.224655,333.7385,333.2596,11,0.0.0.0,10.139.130.79,3,0
2013-11-13 08:51:56.142,167,5.01,52.37608,4.91822,0,0,-1,10.26198,10,1384329086,-0.03070068,-0.4751434,-0.9086761,19.49082,29.72536,6.076141,341.8182,341.3393,11,0.0.0.0,10.139.130.79,3,0
2013-11-13 08:51:56.270,168,5.04,52.37608,4.91822,0,0,-1,10.26198,10,1384329086,-0.03555298,-0.4739532,-0.897995,4.40247,21.60991,1.022659,9.692393,9.21347,11,0.0.0.0,10.139.130.79,3,0
2013-11-13 08:51:56.504,169,5.07,52.37608,4.91822,0,0,-1,10.26198,10,1384329086,-0.03834534,-0.4748993,-0.8989563,5.999409,20.01972,-2.02092,25.82044,25.34151,11,0.0.0.0,10.139.130.79,3,0
2013-11-13 08:51:56.648,170,5.1,52.37608,4.91822,0,0,-1,10.48037,10,1384329087,-0.04908752,-0.4629517,-0.8970947,12.05678,16.40067,-4.892212,28.53397,28.05505,11,0.0.0.0,10.139.130.79,3,0
2013-11-13 08:51:56.758,171,5.13,52.37608,4.91822,0,0,-1,10.48037,10,1384329087,-0.04515076,-0.4717102,-0.885376,15.526,11.41076,-8.165497,338.9322,338.4533,11,0.0.0.0,10.139.130.79,3,0
2013-11-13 08:51:56.893,172,5.16,52.37608,4.91822,0,0,-1,10.48037,10,1384329087,-0.03955078,-0.4669342,-0.8863373,17.50842,6.146678,-8.739754,309.8528,309.3738,11,0.0.0.0,10.139.130.79,3,0
2013-11-13 08:51:57.018,173,5.19,52.37608,4.91822,0,0,-1,10.48037,10,1384329087,-0.03681946,-0.4611511,-0.8882904,17.94895,-3.175112,-9.314018,267.818,267.3391,11,0.0.0.0,10.139.130.79,3,0
2013-11-13 08:51:57.142,174,5.22,52.37608,4.91822,0,0,-1,10.48037,10,1384329087,-0.04412842,-0.469986,-0.9097137,8.477425,-9.206868,-13.21898,244.4439,243.9649,11,0.0.0.0,10.139.130.79,3,0
2013-11-13 08:51:57.273,175,5.25,52.37608,4.91822,0,0,-1,10.48037,10,1384329087,-0.03092957,-0.4690857,-0.8892212,1.318714,-9.645545,-14.48235,212.6009,212.1219,11,0.0.0.0,10.139.130.79,3,0
2013-11-13 08:51:57.502,176,5.28,52.37608,4.91822,0,0,-1,10.48037,10,1384329087,-0.03642273,-0.477829,-0.8940887,-2.260639,-12.66142,-14.19522,201.7389,201.26,11,0.0.0.0,10.139.130.79,3,0
2013-11-13 08:51:57.627,177,5.31,52.37608,4.91822,0,0,-1,9.5,5,1384329088,-0.04516602,-0.4670105,-0.9058228,-1.599834,-17.37716,-13.50611,196.3014,195.8224,11,0.0.0.0,10.139.130.79,3,0
2013-11-13 08:51:57.742,178,5.34,52.37608,4.91822,0,0,-1,9.5,5,1384329088,-0.04246521,-0.4583282,-0.9146118,-0.1130257,-20.39304,-19.65069,200.9854,200.5065,11,0.0.0.0,10.139.130.79,3,0
2013-11-13 08:51:57.863,179,5.37,52.37608,4.91822,0,0,-1,9.5,5,1384329088,-0.04032898,-0.4681854,-0.9174957,-0.7187653,-24.83461,-19.47841,204.6324,204.1535,11,0.0.0.0,10.139.130.79,3,0
2013-11-13 08:51:57.992,180,5.4,52.37608,4.91822,0,0,-1,9.5,5,1384329088,-0.04669189,-0.4481354,-0.8747253,5.999409,-25.27327,-18.67445,207.9267,207.4477,11,0.0.0.0,10.139.130.79,3,0
2013-11-13 08:51:58.124,181,5.43,52.37608,4.91822,0,0,-1,9.5,5,1384329088,-0.02940369,-0.4534607,-0.885376,10.23957,-22.03806,-14.8269,213.8601,213.3812,11,0.0.0.0,10.139.130.79,3,0
2013-11-13 08:51:58.239,182,5.46,52.37608,4.91822,0,0,-1,9.5,5,1384329088,-0.04281616,-0.4464417,-0.8980865,5.503811,-17.87067,-10.92194,212.4576,211.9787,11,0.0.0.0,10.139.130.79,3,0
2013-11-13 08:51:58.461,183,5.49,52.37608,4.91822,0,0,-1,9.5,5,1384329088,-0.03393555,-0.455658,-0.9223633,9.468632,-18.85768,-10.11798,215.1487,214.6698,11,0.0.0.0,10.139.130.79,3,0
2013-11-13 08:51:58.581,184,5.52,52.37608,4.91822,0,0,-1,10.7068,10,1384329089,-0.03697205,-0.449646,-0.9126587,12.66252,-17.54166,-9.543724,220.2354,219.7565,11,0.0.0.0,10.139.130.79,3,0
2013-11-13 08:51:58.782,185,5.55,52.37608,4.91822,0,0,-1,10.7068,10,1384329089,-0.05107117,-0.4580841,-0.9068756,17.34321,-13.20976,-12.12789,228.0751,227.5962,11,0.0.0.0,10.139.130.79,3,0
2013-11-13 08:51:58.929,186,5.58,52.37608,4.91822,0,0,-1,10.7068,10,1384329089,-0.06219482,-0.47435,-0.8912811,10.40477,-15.62246,-11.43877,223.7207,223.2418,11,0.0.0.0,10.139.130.79,3,0
2013-11-13 08:51:59.088,187,5.61,52.37608,4.91822,0,0,-1,10.7068,10,1384329089,-0.05195618,-0.4619446,-0.9019775,6.495014,-17.87066,-9.658569,219.1298,218.6509,11,0.0.0.0,10.139.130.79,3,0
2013-11-13 08:51:59.240,188,5.64,52.37608,4.91822,0,0,-1,10.7068,10,1384329089,-0.05181885,-0.4659424,-0.9116974,6.990616,-33.05972,3.72168,212.1566,211.6776,11,0.0.0.0,10.139.130.79,3,0
2013-11-13 08:51:59.474,189,5.67,52.37608,4.91822,0,0,-1,10.7068,10,1384329089,-0.04341125,-0.4602203,-0.9077911,7.321018,-36.45944,4.985046,214.9433,214.4644,11,0.0.0.0,10.139.130.79,3,0
2013-11-13 08:51:59.586,190,5.7,52.37608,4.91822,0,0,-1,10.7068,10,1384329089,-0.03216553,-0.4535828,-0.9068146,7.871689,-46.43925,8.890015,217.4207,216.9417,11,0.0.0.0,10.139.130.79,3,0
2013-11-13 08:51:59.734,191,5.73,52.37608,4.91822,0,0,-1,10.8642,10,1384329090,-0.03216553,-0.4535828,-0.9068146,2.695389,-53.01935,8.890015,215.7456,215.2666,11,0.0.0.0,10.139.130.79,3,0
2013-11-13 08:51:59.851,192,5.76,52.37608,4.91822,0,0,-1,10.8642,10,1384329090,-0.04656982,-0.447403,-0.9019928,-0.4984932,-55.21272,13.71379,213.402,212.9231,11,0.0.0.0,10.139.130.79,3,0
2013-11-13 08:51:59.985,193,5.79,52.37608,4.91822,0,0,-1,10.8642,10,1384329090,-0.04454041,-0.4523773,-0.9078217,-5.013988,-50.7163,13.02468,205.9726,205.4937,11,0.0.0.0,10.139.130.79,3,0
2013-11-13 08:52:00.122,194,5.82,52.37608,4.91822,0,0,-1,10.8642,10,1384329090,-0.05401611,-0.45224,-0.913681,-3.196777,-49.8938,13.65636,204.6475,204.1686,11,0.0.0.0,10.139.130.79,3,0
2013-11-13 08:52:00.255,195,5.85,52.37608,4.91822,0,0,-1,10.8642,10,1384329090,-0.06361389,-0.4519043,-0.8981628,-1.599834,-51.26464,13.25438,205.9744,205.4954,11,0.0.0.0,10.139.130.79,3,0
2013-11-13 08:52:00.526,196,5.88,52.37608,4.91822,0,0,-1,10.8642,10,1384329090,-0.05506897,-0.4492188,-0.9059143,-1.104229,-46.93275,14.80489,202.509,202.0301,11,0.0.0.0,10.139.130.79,3,0
2013-11-13 08:52:00.726,197,5.91,52.37608,4.91822,0,0,-1,10.8642,10,1384329090,-0.05215454,-0.454071,-0.8961639,-4.132915,-45.8909,16.69994,198.9185,198.4396,11,0.0.0.0,10.139.130.79,3,0
2013-11-13 08:52:00.888,198,5.94,52.37608,4.91822,0,0,-1,10.98597,10,1384329091,-0.05612183,-0.4490204,-0.8864441,-10.35548,-44.08137,19.85837,192.2236,191.7447,11,0.0.0.0,10.139.130.79,3,0
2013-11-13 08:52:01.008,199,5.97,52.37608,4.91822,0,0,-1,10.98597,10,1384329091,-0.0587616,-0.4568481,-0.8952026,-7.657204,-40.62682,14.97716,167.5123,167.0333,15,0.0.0.0,10.139.130.79,3,0
2013-11-13 08:52:01.138,200,6,52.37608,4.91822,0,0,-1,10.98597,10,1384329091,-0.04556274,-0.4512939,-0.8980865,-7.161598,-38.04961,11.70388,168.6451,168.1661,20,0.0.0.0,10.139.130.79,3,0
2013-11-13 08:52:01.247,201,6.03,52.37608,4.91822,0,0,-1,10.98597,10,1384329091,-0.04084778,-0.4456482,-0.9126892,-9.419342,-38.21412,11.18705,167.8154,167.3365,20,0.0.0.0,10.139.130.79,3,0
2013-11-13 08:52:02.125,202,6.06,52.37608,4.91822,0,0,-1,10.98597,10,1384329091,-0.03520203,-0.4447174,-0.905838,-7.271732,-38.15929,9.981102,173.5901,173.1111,20,0.0.0.0,10.139.130.79,3,1
2013-11-13 08:52:02.248,203,6.09,52.37608,4.91822,0,0,-1,11.37146,10,1384329092,-0.03898621,-0.4437256,-0.9136353,-9.088943,-38.98179,10.84249,172.2041,171.7251,20,0.0.0.0,10.139.130.79,3,1
2013-11-13 08:52:02.538,204,6.12,52.37608,4.91822,0,0,-1,11.37146,10,1384329092,-0.04647827,-0.4495087,-0.9175568,-9.584549,-38.70762,12.04844,171.4607,170.9817,20,0.0.0.0,10.139.130.79,3,1
2013-11-13 08:52:02.655,205,6.15,52.37608,4.91822,0,0,-1,11.37146,10,1384329092,-0.05224609,-0.4483032,-0.9068909,-6.610928,-40.24298,11.01478,174.2863,173.8073,20,0.0.0.0,10.139.130.79,3,1
2013-11-13 08:52:02.761,206,6.18,52.37608,4.91822,0,0,-1,11.37146,10,1384329092,-0.06072998,-0.4529572,-0.8991089,-5.344387,-41.17516,11.5316,174.8482,174.3693,20,0.0.0.0,10.139.130.79,3,1
2013-11-13 08:52:02.902,207,6.21,52.37608,4.91822,0,0,-1,11.37146,10,1384329092,-0.05793762,-0.449173,-0.9069061,-3.747448,-41.66867,13.19696,177.272,176.7931,20,0.0.0.0,10.139.130.79,3,1
2013-11-13 08:52:02.998,208,6.24,52.37608,4.91822,0,0,-1,11.37146,10,1384329092,-0.06919861,-0.4529572,-0.9176483,-2.81131,-40.51715,9.69397,181.4272,180.9482,20,0.0.0.0,10.139.130.79,3,1
2013-11-13 08:52:03.085,209,6.27,52.37608,4.91822,0,0,-1,11.37146,10,1384329092,-0.05586243,-0.452301,-0.9253998,-2.81131,-39.96881,10.26823,180.573,180.094,20,0.0.0.0,10.139.130.79,3,1
2013-11-13 08:52:03.197,210,6.3,52.37608,4.91822,0,0,-1,11.37146,10,1384329092,-0.04846191,-0.4502106,-0.8922729,-1.6549,-41.01066,12.04844,178.8528,178.3739,20,0.0.0.0,10.139.130.79,3,1
2013-11-13 08:52:03.297,211,6.33,52.37608,4.91822,0,0,-1,11.37146,10,1384329092,-0.03900146,-0.4493408,-0.8844299,-1.434635,-41.33966,14.23063,176.9951,176.5161,20,0.0.0.0,10.139.130.79,3,1
2013-11-13 08:52:03.944,212,6.36,52.37608,4.91822,0,0,-1,11.57641,10,1384329093,-0.05168152,-0.4363251,-0.8777161,-1.159298,-40.51715,13.59894,177.1154,176.6364,20,0.0.0.0,10.139.130.79,3,1
2013-11-13 08:52:04.073,213,6.39,52.37608,4.91822,0,0,-1,11.57641,10,1384329093,-0.05168152,-0.4363251,-0.8777161,-0.1680946,-39.20113,12.56527,178.601,178.1221,15,0.0.0.0,10.139.130.79,3,1
2013-11-13 08:52:04.220,214,6.42,52.37608,4.91822,0,0,-1,11.57641,10,1384329093,-0.05513,-0.445343,-0.9108124,-0.7187653,-38.10445,10.84249,180.4377,179.9588,15,0.0.0.0,10.139.130.79,3,1
2013-11-13 08:52:04.555,215,6.45,52.37608,4.91822,0,0,-1,11.57641,10,1384329093,-0.04554749,-0.4456787,-0.9263306,2.805527,-31.63402,10.95734,176.649,176.1701,15,0.0.0.0,10.139.130.79,3,1
2013-11-13 08:52:04.870,216,6.48,52.37608,4.91822,0,0,-1,11.57641,10,1384329093,-0.04283142,-0.4389191,-0.9292603,6.274746,-26.75378,10.89992,173.4793,173.0003,15,0.0.0.0,10.139.130.79,3,1
2013-11-13 08:52:05.730,217,6.51,52.37608,4.91822,0,0,-1,11.57641,10,1384329093,-0.0362854,-0.437912,-0.9117126,-1.930233,-25.71194,1.309784,180.375,179.8961,15,0.0.0.0,10.139.130.79,3,1
2013-11-13 08:52:05.963,218,6.54,52.37608,4.91822,0,0,-1,11.57641,10,1384329093,-0.05230713,-0.4491425,-0.8912964,-2.20557,-23.35406,-1.733788,184.1382,183.6593,15,0.0.0.0,10.139.130.79,3,1
2013-11-13 08:52:06.125,219,6.57,52.37608,4.91822,0,0,-1,11.57641,10,1384329093,-0.0569458,-0.449234,-0.9117584,-0.7187653,-22.20254,-2.824883,188.6195,188.1405,15,0.0.0.0,10.139.130.79,3,1
2013-11-13 08:52:06.444,220,6.6,52.37608,4.91822,0,0,-1,11.57641,10,1384329093,-0.04743958,-0.4466248,-0.9273224,-1.269432,-21.87354,-5.236778,192.6241,192.1452,15,0.0.0.0,10.139.130.79,3,1
2013-11-13 08:52:06.562,221,6.63,52.37608,4.91822,0,0,-1,11.57641,10,1384329093,-0.05030823,-0.4483948,-0.9117279,0.6579094,-23.68307,-4.605087,193.48,193.0011,15,0.0.0.0,10.139.130.79,3,1
2013-11-13 08:52:06.723,222,6.66,52.37608,4.91822,0,0,-1,11.57641,10,1384329093,-0.05496216,-0.4503479,-0.9234467,0.6028442,-23.18956,-6.155586,196.4806,196.0016,15,0.0.0.0,10.139.130.79,3,1
2013-11-13 08:52:06.861,223,6.69,52.37608,4.91822,0,0,-1,11.57641,10,1384329093,-0.05323792,-0.4463348,-0.9078674,1.869385,-22.69605,-5.868454,198.5661,198.0871,15,0.0.0.0,10.139.130.79,3,1
2013-11-13 08:52:06.988,224,6.72,52.37608,4.91822,0,0,-1,11.57641,10,1384329093,-0.05323792,-0.4463348,-0.9078674,4.182201,-24.88942,-4.949646,200.8685,200.3896,15,0.0.0.0,10.139.130.79,3,1
2013-11-13 08:52:07.191,225,6.75,52.37608,4.91822,0,0,-1,11.57641,10,1384329093,-0.05389404,-0.4571381,-0.9146576,5.889275,-25.4926,-4.317955,200.7792,200.3002,15,0.0.0.0,10.139.130.79,3,1
2013-11-13 08:52:07.587,226,6.78,52.37608,4.91822,0,0,-1,11.79968,10,1384329094,-0.05314636,-0.4474182,-0.9185791,8.091957,-25.38293,-4.088257,203.4898,203.0109,15,0.0.0.0,10.139.130.79,3,1
2013-11-13 08:52:08.508,227,6.81,52.37608,4.91822,0,0,-1,11.79968,10,1384329094,-0.05511475,-0.4453583,-0.9137115,13.54359,-21.92838,-5.523903,215.5349,215.056,15,0.0.0.0,10.139.130.79,3,1
2013-11-13 08:52:08.797,228,6.84,52.37608,4.91822,0,0,-1,11.96866,10,1384329095,-0.04211426,-0.4347687,-0.8990784,12.05678,-23.0799,-5.121925,212.8882,212.4093,15,0.0.0.0,10.139.130.79,3,1
2013-11-13 08:52:08.961,229,6.87,52.37608,4.91822,0,0,-1,11.96866,10,1384329095,-0.04112244,-0.434845,-0.9068909,12.22198,-23.5734,-5.179344,214.2522,213.7732,15,0.0.0.0,10.139.130.79,3,1
2013-11-13 08:52:09.108,230,6.9,52.37608,4.91822,0,0,-1,11.96866,10,1384329095,-0.04679871,-0.4385681,-0.8971405,13.37839,-23.18956,-5.811035,216.34,215.8611,15,0.0.0.0,10.139.130.79,3,1
2013-11-13 08:52:09.214,231,6.93,52.37608,4.91822,0,0,-1,11.96866,10,1384329095,-0.04956055,-0.4423981,-0.8961792,12.99292,-21.70904,-5.983315,217.8812,217.4023,15,0.0.0.0,10.139.130.79,3,1
2013-11-13 08:52:09.472,232,6.96,52.37608,4.91822,0,0,-1,11.96866,10,1384329095,-0.04956055,-0.4423981,-0.8961792,13.26825,-22.09288,-5.236778,216.4878,216.0089,15,0.0.0.0,10.139.130.79,3,1
2013-11-13 08:52:09.635,233,6.99,52.37608,4.91822,0,0,-1,11.96866,10,1384329095,-0.03799438,-0.4438629,-0.9243469,13.81892,-22.86056,-5.696182,216.3204,215.8415,15,0.0.0.0,10.139.130.79,3,1
2013-11-13 08:52:09.799,234,7.02,52.37608,4.91822,0,0,-1,11.96866,10,1384329095,-0.03799438,-0.4438629,-0.9243469,13.81892,-27.9053,-6.270439,215.2723,214.7934,15,0.0.0.0,10.139.130.79,3,1
2013-11-13 08:52:09.978,235,7.05,52.37608,4.91822,0,0,-1,11.96866,10,1384329095,-0.04660034,-0.4417419,-0.9253845,10.90038,-27.7408,-5.753601,210.9712,210.4923,15,0.0.0.0,10.139.130.79,3,1
2013-11-13 08:52:10.164,236,7.08,52.37608,4.91822,0,0,-1,12.09503,10,1384329096,-0.05874634,-0.4512634,-0.925415,12.38718,-27.24729,-5.92588,212.7349,212.256,15,0.0.0.0,10.139.130.79,3,1
2013-11-13 08:52:10.372,237,7.11,52.37608,4.91822,0,0,-1,12.09503,10,1384329096,-0.05389404,-0.4552765,-0.9243774,13.21319,-24.12174,-5.40905,214.9859,214.507,15,0.0.0.0,10.139.130.79,3,1
2013-11-13 08:52:10.582,238,7.14,52.37608,4.91822,0,0,-1,12.09503,10,1384329096,-0.05215454,-0.4540863,-0.8971252,13.32332,-24.99909,-3.571419,212.5312,212.0523,15,0.0.0.0,10.139.130.79,3,1
2013-11-13 08:52:10.701,239,7.17,52.37608,4.91822,0,0,-1,12.09503,10,1384329096,-0.05140686,-0.4471283,-0.8835297,11.56118,-26.20544,-2.767456,208.458,207.9791,15,0.0.0.0,10.139.130.79,3,1
2013-11-13 08:52:10.810,240,7.2,52.37608,4.91822,0,0,-1,12.09503,10,1384329096,-0.05140686,-0.4471283,-0.8835297,10.40477,-24.50558,-1.906067,206.2974,205.8185,15,0.0.0.0,10.139.130.79,3,1
2013-11-13 08:52:10.898,241,7.23,52.37608,4.91822,0,0,-1,12.09503,10,1384329096,-0.05131531,-0.4472961,-0.9020233,10.84531,-20.66719,-1.676361,208.0633,207.5844,15,0.0.0.0,10.139.130.79,3,1
2013-11-13 08:52:11.045,242,7.26,52.37608,4.91822,0,0,-1,12.09503,10,1384329096,-0.05131531,-0.4472961,-0.9020233,8.97303,-17.37715,-2.135773,209.2952,208.8163,15,0.0.0.0,10.139.130.79,3,1
2013-11-13 08:52:11.172,243,7.29,52.37608,4.91822,0,0,-1,12.09503,10,1384329096,-0.04554749,-0.4494476,-0.9087982,6.329815,-13.53875,-4.088257,212.9053,212.4263,15,0.0.0.0,10.139.130.79,3,1
2013-11-13 08:52:11.273,244,7.32,52.37608,4.91822,0,0,-1,12.09503,10,1384329096,-0.04008484,-0.4387665,-0.9068756,6.329815,-13.97742,-6.61499,203.8647,203.3858,16,0.0.0.0,10.139.130.79,3,1
2013-11-13 08:52:11.486,245,7.35,52.37608,4.91822,0,0,-1,12.09503,10,1384329096,-0.04008484,-0.4387665,-0.9068756,10.45984,-16.00629,-6.327866,207.8363,207.3574,16,0.0.0.0,10.139.130.79,3,1
2013-11-13 08:52:11.559,246,7.38,52.37608,4.91822,0,0,-1,12.09503,10,1384329096,-0.04653931,-0.4493561,-0.9019775,11.34091,-16.55463,-4.71994,207.7775,207.2986,16,0.0.0.0,10.139.130.79,3,1
2013-11-13 08:52:11.665,247,7.41,52.37608,4.91822,0,0,-1,12.09503,10,1384329096,-0.05319214,-0.4492188,-0.9020081,11.67131,-17.87065,-3.341713,206.1037,205.6248,16,0.0.0.0,10.139.130.79,3,1
2013-11-13 08:52:11.764,248,7.44,52.37608,4.91822,0,0,-1,12.26404,10,1384329097,-0.04933167,-0.4484558,-0.9165955,11.34091,-18.748,-0.8149719,204.8562,204.3772,16,0.0.0.0,10.139.130.79,3,1
2013-11-13 08:52:11.858,249,7.47,52.37608,4.91822,0,0,-1,12.26404,10,1384329097,-0.04176331,-0.4494934,-0.9068451,9.248363,-19.40601,-0.5852661,197.0952,196.6163,16,0.0.0.0,10.139.130.79,3,1
2013-11-13 08:52:11.980,250,7.5,52.37608,4.91822,0,0,-1,12.26404,10,1384329097,-0.04190063,-0.4464111,-0.8902893,8.697693,-20.28335,-1.84864,196.4456,195.9667,16,0.0.0.0,10.139.130.79,3,1
2013-11-13 08:52:12.067,251,7.53,52.37608,4.91822,0,0,-1,12.26404,10,1384329097,-0.05039978,-0.4482269,-0.8922729,9.138229,-19.40601,-3.341713,197.2037,196.7248,16,0.0.0.0,10.139.130.79,3,1
2013-11-13 08:52:12.158,252,7.56,52.37608,4.91822,0,0,-1,12.26404,10,1384329097,-0.05586243,-0.4541626,-0.9146729,9.413563,-18.36416,-6.040733,197.6361,197.1572,16,0.0.0.0,10.139.130.79,3,1
2013-11-13 08:52:12.254,253,7.59,52.37608,4.91822,0,0,-1,12.26404,10,1384329097,-0.05218506,-0.4521484,-0.9000702,9.138229,-19.73501,-6.327866,198.3692,197.8903,16,0.0.0.0,10.139.130.79,3,1
2013-11-13 08:52:12.458,254,7.62,52.37608,4.91822,0,0,-1,12.26404,10,1384329097,-0.05218506,-0.4521484,-0.9000702,7.981823,-20.00918,-5.811035,197.8146,197.3357,16,0.0.0.0,10.139.130.79,3,1
2013-11-13 08:52:12.547,255,7.65,52.37608,4.91822,0,0,-1,12.26404,10,1384329097,-0.05110168,-0.4599152,-0.8902893,6.770351,-18.47383,-6.844704,197.599,197.1201,16,0.0.0.0,10.139.130.79,3,1
2013-11-13 08:52:12.650,256,7.68,52.37608,4.91822,0,0,-1,12.26404,10,1384329097,-0.05110168,-0.4599152,-0.8902893,5.66901,-17.48681,-5.351624,197.8318,197.3529,16,0.0.0.0,10.139.130.79,3,1
2013-11-13 08:52:12.740,257,7.71,52.37608,4.91822,0,0,-1,12.26404,10,1384329097,-0.05987549,-0.4499664,-0.8903503,6.109547,-19.2415,-4.662514,196.0799,195.601,16,0.0.0.0,10.139.130.79,3,1
2013-11-13 08:52:12.841,258,7.74,52.37608,4.91822,0,0,-1,12.26404,10,1384329097,-0.02342224,-0.454071,-0.9408264,5.283539,-20.17368,-5.294197,191.2366,190.7577,16,0.0.0.0,10.139.130.79,3,1
2013-11-13 08:52:12.952,259,7.77,52.37608,4.91822,0,0,-1,12.26404,10,1384329097,-0.01011658,-0.4608765,-0.9057007,4.40247,-19.29634,-6.098167,192.4668,191.9879,16,0.0.0.0,10.139.130.79,3,1
2013-11-13 08:52:13.055,260,7.8,52.37608,4.91822,0,0,-1,12.26404,10,1384329097,-0.03096008,-0.465271,-0.898941,4.347401,-20.44785,-4.662514,194.006,193.527,16,0.0.0.0,10.139.130.79,3,1
2013-11-13 08:52:13.187,261,7.83,52.37608,4.91822,0,0,-1,12.26404,10,1384329097,-0.02314758,-0.4732971,-0.9067078,2.915661,-20.88653,-5.236778,189.6035,189.1245,16,0.0.0.0,10.139.130.79,3,1
2013-11-13 08:52:13.263,262,7.86,52.37608,4.91822,0,0,-1,12.42249,10,1384329098,-0.02314758,-0.4732971,-0.9067078,3.135925,-20.11885,-6.385292,191.9823,191.5033,16,0.0.0.0,10.139.130.79,3,1
2013-11-13 08:52:13.462,263,7.89,52.37608,4.91822,0,0,-1,12.42249,10,1384329098,-0.03019714,-0.4593048,-0.8863068,4.292336,-20.06402,-5.868454,194.7555,194.2766,16,0.0.0.0,10.139.130.79,3,1
2013-11-13 08:52:13.563,264,7.92,52.37608,4.91822,0,0,-1,12.42249,10,1384329098,-0.03019714,-0.4593048,-0.8863068,4.95314,-20.28336,-5.179344,193.9881,193.5092,16,0.0.0.0,10.139.130.79,3,1
2013-11-13 08:52:13.654,265,7.95,52.37608,4.91822,0,0,-1,12.42249,10,1384329098,-0.03669739,-0.4688873,-0.87854,5.173405,-19.29634,-5.523903,193.0306,192.5517,16,0.0.0.0,10.139.130.79,3,1
2013-11-13 08:52:13.762,266,7.98,52.37608,4.91822,0,0,-1,12.42249,10,1384329098,-0.03486633,-0.4640961,-0.8853607,5.448742,-19.57051,-3.973404,192.7817,192.3028,16,0.0.0.0,10.139.130.79,3,1
2013-11-13 08:52:13.865,267,8.01,52.37608,4.91822,0,0,-1,12.42249,10,1384329098,-0.02154541,-0.4625244,-0.8969879,3.466331,-20.88652,-2.824883,187.7928,187.3138,16,0.0.0.0,10.139.130.79,3,1
2013-11-13 08:52:13.961,268,8.04,52.37608,4.91822,0,0,-1,12.42249,10,1384329098,-0.0289917,-0.4663849,-0.9096527,2.36499,-21.43487,-4.432808,180.9245,180.4456,16,0.0.0.0,10.139.130.79,3,1
2013-11-13 08:52:14.070,269,8.07,52.37608,4.91822,0,0,-1,12.42249,10,1384329098,-0.02607727,-0.4693756,-0.9086761,1.594051,-21.3252,-6.61499,178.9371,178.4582,16,0.0.0.0,10.139.130.79,3,1
2013-11-13 08:52:14.148,270,8.099999,52.37608,4.91822,0,0,-1,12.42249,10,1384329098,-0.02613831,-0.4683075,-0.8999176,0.4927101,-21.76387,-6.729843,178.8776,178.3987,16,0.0.0.0,10.139.130.79,3,1
2013-11-13 08:52:14.239,271,8.13,52.37608,4.91822,0,0,-1,12.42249,10,1384329098,-0.03649902,-0.473938,-0.897995,-0.8288956,-20.66719,-8.567482,181.4149,180.9359,16,0.0.0.0,10.139.130.79,3,1
2013-11-13 08:52:14.458,272,8.16,52.37608,4.91822,0,0,-1,12.42249,10,1384329098,-0.02616882,-0.4663696,-0.9018555,-1.599834,-18.9125,-11.55363,181.9857,181.5068,16,0.0.0.0,10.139.130.79,3,1
2013-11-13 08:52:14.547,273,8.19,52.37608,4.91822,0,0,-1,12.42249,10,1384329098,-0.02616882,-0.4663696,-0.9018555,-1.875168,-18.63833,-11.0368,185.7525,185.2735,16,0.0.0.0,10.139.130.79,3,1
2013-11-13 08:52:14.626,274,8.22,52.37608,4.91822,0,0,-1,12.42249,10,1384329098,-0.02626038,-0.4634094,-0.8970032,-2.370773,-18.25449,-10.97937,185.145,184.6661,16,0.0.0.0,10.139.130.79,3,1
2013-11-13 08:52:14.728,275,8.25,52.37608,4.91822,0,0,-1,12.42249,10,1384329098,-0.02146912,-0.4645233,-0.902832,-4.518383,-17.76098,-10.34768,182.9577,182.4788,16,0.0.0.0,10.139.130.79,3,1
2013-11-13 08:52:14.829,276,8.28,52.37608,4.91822,0,0,-1,12.42249,10,1384329098,-0.01954651,-0.4674072,-0.8950043,-6.390663,-16.99331,-9.199158,177.6781,177.1991,16,0.0.0.0,10.139.130.79,3,1
2013-11-13 08:52:14.948,277,8.309999,52.37608,4.91822,0,0,-1,12.67313,10,1384329099,-0.03115845,-0.4602661,-0.8853455,-6.665997,-16.71914,-9.715996,175.5616,175.0827,16,0.0.0.0,10.139.130.79,3,1
2013-11-13 08:52:15.031,278,8.34,52.37608,4.91822,0,0,-1,12.67313,10,1384329099,-0.03115845,-0.4602661,-0.8853455,-6.886265,-14.4161,-10.74966,173.3822,172.9032,16,0.0.0.0,10.139.130.79,3,1
2013-11-13 08:52:15.135,279,8.37,52.37608,4.91822,0,0,-1,12.67313,10,1384329099,-0.02145386,-0.4673615,-0.8921204,-6.886265,-13.97743,-10.40511,171.3438,170.8649,16,0.0.0.0,10.139.130.79,3,1
2013-11-13 08:52:15.248,280,8.4,52.37608,4.91822,0,0,-1,12.67313,10,1384329099,-0.02145386,-0.4673615,-0.8921204,-6.776134,-13.86776,-10.86452,169.2919,168.813,16,0.0.0.0,10.139.130.79,3,1
2013-11-13 08:52:15.447,281,8.429999,52.37608,4.91822,0,0,-1,12.67313,10,1384329099,-0.03091431,-0.4691315,-0.89505,-4.353184,-12.77108,-11.78333,162.8984,162.4194,16,0.0.0.0,10.139.130.79,3,1
2013-11-13 08:52:15.548,282,8.46,52.37608,4.91822,0,0,-1,12.67313,10,1384329099,-0.03755188,-0.4672089,-0.910675,-3.967712,-13.15491,-11.9556,159.5207,159.0418,16,0.0.0.0,10.139.130.79,3,1
2013-11-13 08:52:15.647,283,8.49,52.37608,4.91822,0,0,-1,12.67313,10,1384329099,-0.06610107,-0.4646912,-0.9117584,-3.802513,-14.30643,-12.35759,159.2345,158.7556,16,0.0.0.0,10.139.130.79,3,1
2013-11-13 08:52:15.780,284,8.52,52.37608,4.91822,0,0,-1,12.67313,10,1384329099,-0.003875732,-0.4844513,-0.9075623,-4.353184,-14.19676,-13.39125,159.4808,159.0019,16,0.0.0.0,10.139.130.79,3,1
2013-11-13 08:52:15.909,285,8.55,52.37608,4.91822,0,0,-1,12.67313,10,1384329099,0.03363037,-0.5010071,-0.9268494,-4.298119,-15.78695,-13.33383,162.1907,161.7118,16,0.0.0.0,10.139.130.79,3,1
2013-11-13 08:52:15.991,286,8.58,52.37608,4.91822,0,0,-1,12.67313,10,1384329099,0.01153564,-0.4982452,-0.8850861,-2.921444,-14.30643,-13.39125,165.6565,165.1776,16,0.0.0.0,10.139.130.79,3,1
2013-11-13 08:52:16.096,287,8.61,52.37608,4.91822,0,0,-1,12.67313,10,1384329099,-0.02275085,-0.4937286,-0.8939819,-3.417046,-9.53586,-12.64472,172.006,171.5271,16,0.0.0.0,10.139.130.79,3,1
2013-11-13 08:52:16.222,288,8.639999,52.37608,4.91822,0,0,-1,12.67313,10,1384329099,0.01387024,-0.5178223,-0.8840485,-4.628517,-5.478129,-11.9556,176.0554,175.5765,16,0.0.0.0,10.139.130.79,3,1
2013-11-13 08:52:16.315,289,8.67,52.37608,4.91822,0,0,-1,12.67313,10,1384329099,0.03712463,-0.5368805,-0.8878021,-4.848789,-2.626758,-11.0368,179.7777,179.2988,16,0.0.0.0,10.139.130.79,3,1
2013-11-13 08:52:16.497,290,8.7,52.37608,4.91822,0,0,-1,12.86493,10,1384329100,0.03712463,-0.5368805,-0.8878021,-7.161598,-1.749412,-11.0368,181.4845,181.0056,16,0.0.0.0,10.139.130.79,3,1
2013-11-13 08:52:16.595,291,8.73,52.37608,4.91822,0,0,-1,12.86493,10,1384329100,0.04174805,-0.5386047,-0.8517761,-6.721062,0.005276024,-11.38135,180.3965,179.9176,16,0.0.0.0,10.139.130.79,3,1
2013-11-13 08:52:16.739,292,8.76,52.37608,4.91822,0,0,-1,12.86493,10,1384329100,0.0400238,-0.5520172,-0.8244629,-4.738655,-0.1043941,-11.9556,184.7516,184.2727,16,0.0.0.0,10.139.130.79,3,1
2013-11-13 08:52:16.809,293,8.79,52.37608,4.91822,0,0,-1,12.86493,10,1384329100,0.03807068,-0.587326,-0.8438568,-2.425838,-0.4333953,-11.9556,187.4799,187.0009,16,0.0.0.0,10.139.130.79,3,1
2013-11-13 08:52:16.908,294,8.82,52.37608,4.91822,0,0,-1,12.86493,10,1384329100,0.1808167,-0.5939941,-0.8345032,-0.7187653,-0.597899,-11.78333,186.4042,185.9252,16,0.0.0.0,10.139.130.79,3,1
2013-11-13 08:52:17.006,295,8.849999,52.37608,4.91822,0,0,-1,12.86493,10,1384329100,0.1920624,-0.5826874,-0.8578644,0.2724457,-1.804249,-11.55363,185.6944,185.2154,16,0.0.0.0,10.139.130.79,3,1
2013-11-13 08:52:17.105,296,8.88,52.37608,4.91822,0,0,-1,12.86493,10,1384329100,0.1986542,-0.5929718,-0.7906189,3.135925,-3.339603,-12.01304,184.3777,183.8987,16,0.0.0.0,10.139.130.79,3,1
2013-11-13 08:52:17.197,297,8.91,52.37608,4.91822,0,0,-1,12.86493,10,1384329100,0.23703,-0.6121063,-0.7709656,4.347401,-4.436286,-11.32392,185.4564,184.9775,16,0.0.0.0,10.139.130.79,3,1
2013-11-13 08:52:17.292,298,8.94,52.37608,4.91822,0,0,-1,12.86493,10,1384329100,0.2653503,-0.5627747,-0.7612305,5.613941,-3.723441,-10.92194,186.9735,186.4946,16,0.0.0.0,10.139.130.79,3,1
2013-11-13 08:52:17.489,299,8.97,52.37608,4.91822,0,0,-1,12.86493,10,1384329100,0.2502747,-0.6047668,-0.7913818,7.10075,-3.668611,-9.371437,192.0895,191.6105,16,0.0.0.0,10.139.130.79,3,1
2013-11-13 08:52:17.598,300,9,52.37608,4.91822,0,0,-1,12.86493,10,1384329100,0.3207703,-0.6446838,-0.6196442,7.541286,-3.010599,-8.912033,193.2036,192.7247,16,0.0.0.0,10.139.130.79,3,1
2013-11-13 08:52:17.697,301,9.03,52.37608,4.91822,0,0,-1,12.86493,10,1384329100,0.3207703,-0.6446838,-0.6196442,6.935551,-2.846095,-8.510048,195.47,194.991,16,0.0.0.0,10.139.130.79,3,1
2013-11-13 08:52:17.798,302,9.059999,52.37608,4.91822,0,0,-1,12.86493,10,1384329100,0.4330597,-0.59935,-0.6553497,5.503811,-3.1751,-8.28035,195.5036,195.0247,16,0.0.0.0,10.139.130.79,3,1
2013-11-13 08:52:17.896,303,9.09,52.37608,4.91822,0,0,-1,13.03947,10,1384329101,0.3836517,-0.5787964,-0.761734,5.228474,-2.13325,-8.682335,195.5605,195.0815,16,0.0.0.0,10.139.130.79,3,1
2013-11-13 08:52:17.996,304,9.12,52.37608,4.91822,0,0,-1,13.03947,10,1384329101,0.3154297,-0.5854797,-0.7853394,4.237267,-2.791262,-8.452629,195.6216,195.1427,16,0.0.0.0,10.139.130.79,3,1
2013-11-13 08:52:18.102,305,9.15,52.37608,4.91822,0,0,-1,13.03947,10,1384329101,0.2392731,-0.6101074,-0.6482697,5.613941,-4.052445,-7.935791,199.0363,198.5574,16,0.0.0.0,10.139.130.79,3,1
2013-11-13 08:52:18.217,306,9.179999,52.37608,4.91822,0,0,-1,13.03947,10,1384329101,0.395401,-0.6152649,-0.6603241,6.109547,-6.629652,-7.189255,199.8925,199.4136,16,0.0.0.0,10.139.130.79,3,1
2013-11-13 08:52:18.296,307,9.21,52.37608,4.91822,0,0,-1,13.03947,10,1384329101,0.4394836,-0.6298065,-0.6581573,5.889275,-6.848989,-8.222916,197.6624,197.1834,16,0.0.0.0,10.139.130.79,3,1
2013-11-13 08:52:18.494,308,9.24,52.37608,4.91822,0,0,-1,13.03947,10,1384329101,0.3597107,-0.6219482,-0.7227478,6.880486,-10.79705,-7.763512,193.4264,192.9475,16,0.0.0.0,10.139.130.79,3,1
2013-11-13 08:52:18.589,309,9.27,52.37608,4.91822,0,0,-1,13.03947,10,1384329101,0.3532104,-0.6791534,-0.686615,5.999409,-11.78406,-6.959557,189.6642,189.1853,16,0.0.0.0,10.139.130.79,3,1
2013-11-13 08:52:18.708,310,9.3,52.37608,4.91822,0,0,-1,13.03947,10,1384329101,0.4179688,-0.7085876,-0.556778,4.016998,-12.77107,-7.418961,186.6225,186.1436,16,0.0.0.0,10.139.130.79,3,1
2013-11-13 08:52:18.805,311,9.33,52.37608,4.91822,0,0,-1,13.03947,10,1384329101,0.3243103,-0.6750793,-0.622467,3.851799,-14.36127,-6.672424,186.2642,185.7853,16,0.0.0.0,10.139.130.79,3,1
2013-11-13 08:52:18.933,312,9.36,52.37608,4.91822,0,0,-1,13.03947,10,1384329101,0.2632141,-0.596817,-0.7485046,4.072067,-16.00629,-6.442719,187.802,187.3231,16,0.0.0.0,10.139.130.79,3,1
2013-11-13 08:52:19.012,313,9.389999,52.37608,4.91822,0,0,-1,13.03947,10,1384329101,0.2346039,-0.5914307,-0.7574005,4.567669,-16.17079,-5.236778,188.1964,187.7174,16,0.0.0.0,10.139.130.79,3,1
2013-11-13 08:52:19.135,314,9.42,52.37608,4.91822,0,0,-1,13.03947,10,1384329101,0.210968,-0.5940552,-0.7740326,6.109547,-14.7451,-6.155586,189.6306,189.1516,16,0.0.0.0,10.139.130.79,3,1
2013-11-13 08:52:19.255,315,9.45,52.37608,4.91822,0,0,-1,13.03947,10,1384329101,0.2061462,-0.5910339,-0.7750397,6.38488,-15.89662,-5.753601,190.7928,190.3139,16,0.0.0.0,10.139.130.79,3,1
2013-11-13 08:52:19.441,316,9.48,52.37608,4.91822,0,0,-1,13.18824,10,1384329102,0.1713867,-0.5650482,-0.7898407,3.906864,-14.19676,-5.007065,187.1229,186.644,16,0.0.0.0,10.139.130.79,3,1
2013-11-13 08:52:19.543,317,9.51,52.37608,4.91822,0,0,-1,13.18824,10,1384329102,0.1508331,-0.5756531,-0.8171539,3.246059,-12.6614,-5.581329,187.3392,186.8602,16,0.0.0.0,10.139.130.79,3,1
2013-11-13 08:52:19.669,318,9.54,52.37608,4.91822,0,0,-1,13.18824,10,1384329102,0.1439209,-0.562851,-0.8230591,3.521397,-15.12894,-4.834793,184.9232,184.4443,16,0.0.0.0,10.139.130.79,3,1
2013-11-13 08:52:19.763,319,9.57,52.37608,4.91822,0,0,-1,13.18824,10,1384329102,0.1667023,-0.5604095,-0.8268585,3.686596,-14.96444,-5.466476,184.2108,183.7319,16,0.0.0.0,10.139.130.79,3,1
2013-11-13 08:52:19.892,320,9.599999,52.37608,4.91822,0,0,-1,13.18824,10,1384329102,0.1148987,-0.5389404,-0.8358917,2.860592,-17.21264,-4.490234,183.6665,183.1876,16,0.0.0.0,10.139.130.79,3,1
2013-11-13 08:52:19.983,321,9.63,52.37608,4.91822,0,0,-1,13.18824,10,1384329102,0.1083221,-0.5342407,-0.8700104,2.475124,-14.96444,-5.466476,182.4673,181.9884,16,0.0.0.0,10.139.130.79,3,1
2013-11-13 08:52:20.084,322,9.66,52.37608,4.91822,0,0,-1,13.18824,10,1384329102,0.1123352,-0.5422363,-0.8806763,3.521397,-15.89662,-2.53775,182.1821,181.7032,16,0.0.0.0,10.139.130.79,3,1
2013-11-13 08:52:20.176,323,9.69,52.37608,4.91822,0,0,-1,13.18824,10,1384329102,0.1113281,-0.541153,-0.8728943,3.190994,-15.45795,-2.308044,180.5579,180.079,16,0.0.0.0,10.139.130.79,3,1
2013-11-13 08:52:20.282,324,9.719999,52.37608,4.91822,0,0,-1,13.18824,10,1384329102,0.1064301,-0.5342255,-0.8729401,1.81432,-18.9125,-0.1832886,174.9402,174.4612,16,0.0.0.0,10.139.130.79,3,1
2013-11-13 08:52:20.497,325,9.75,52.37608,4.91822,0,0,-1,13.18824,10,1384329102,0.1064301,-0.5342255,-0.8729401,1.64912,-20.94136,0.4483948,174.7526,174.2737,16,0.0.0.0,10.139.130.79,3,1
2013-11-13 08:52:20.603,326,9.78,52.37608,4.91822,0,0,-1,13.18824,10,1384329102,0.08918762,-0.5280304,-0.8759308,2.089657,-19.40601,2.400879,174.4832,174.0043,16,0.0.0.0,10.139.130.79,3,1
2013-11-13 08:52:20.718,327,9.809999,52.37608,4.91822,0,0,-1,13.18824,10,1384329102,0.09275818,-0.5220795,-0.8574371,0.8781815,-19.077,2.286026,174.1088,173.6299,16,0.0.0.0,10.139.130.79,3,1
2013-11-13 08:52:20.845,328,9.84,52.37608,4.91822,0,0,-1,13.34219,10,1384329103,0.08216858,-0.5188293,-0.8448334,0.7129822,-18.47383,1.998901,173.9346,173.4556,16,0.0.0.0,10.139.130.79,3,1
2013-11-13 08:52:20.930,329,9.87,52.37608,4.91822,0,0,-1,13.34219,10,1384329103,0.07035828,-0.5009766,-0.8439484,1.594051,-16.71913,0.390976,173.4413,172.9624,16,0.0.0.0,10.139.130.79,3,1
2013-11-13 08:52:21.030,330,9.9,52.37608,4.91822,0,0,-1,13.34219,10,1384329103,0.04524231,-0.5184479,-0.8839264,0.6579094,-18.748,3.089989,171.1404,170.6615,16,0.0.0.0,10.139.130.79,3,1
2013-11-13 08:52:21.129,331,9.929999,52.37608,4.91822,0,0,-1,13.34219,10,1384329103,0.06506348,-0.5147705,-0.8673096,1.09845,-17.76098,2.860291,170.6013,170.1224,16,0.0.0.0,10.139.130.79,3,1
2013-11-13 08:52:21.472,332,9.96,52.37608,4.91822,0,0,-1,13.34219,10,1384329103,0.05819702,-0.5114288,-0.8361816,0.6579094,-20.94136,3.434547,170.4818,170.0029,16,0.0.0.0,10.139.130.79,3,1
2013-11-13 08:52:21.592,333,9.99,52.37608,4.91822,0,0,-1,13.34219,10,1384329103,0.05819702,-0.5114288,-0.8361816,0.2724457,-21.54454,2.802856,170.4379,169.959,16,0.0.0.0,10.139.130.79,3,1
2013-11-13 08:52:21.713,334,10.02,52.37608,4.91822,0,0,-1,13.34219,10,1384329103,0.03825378,-0.4979706,-0.905426,1.20858,-23.24439,4.812767,171.6987,171.2197,16,0.0.0.0,10.139.130.79,3,1
2013-11-13 08:52:21.838,335,10.05,52.37608,4.91822,0,0,-1,13.34219,10,1384329103,0.03640747,-0.5036926,-0.8927612,1.043381,-24.72492,6.018715,173.8008,173.3218,16,0.0.0.0,10.139.130.79,3,1
2013-11-13 08:52:21.944,336,10.08,52.37608,4.91822,0,0,-1,13.34219,10,1384329103,0.05162048,-0.5077515,-0.8751526,2.254856,-25.60226,5.559311,175.8149,175.336,16,0.0.0.0,10.139.130.79,3,1
2013-11-13 08:52:22.073,337,10.11,52.37608,4.91822,0,0,-1,13.34219,10,1384329103,0.05332947,-0.500824,-0.8634949,2.640324,-25.54743,4.697922,175.7617,175.2827,16,0.0.0.0,10.139.130.79,3,1
2013-11-13 08:52:22.182,338,10.14,52.37608,4.91822,0,0,-1,13.34219,10,1384329103,0.01713562,-0.4906616,-0.8986969,2.805527,-25.05392,4.181084,177.6528,177.1739,16,0.0.0.0,10.139.130.79,3,1
2013-11-13 08:52:22.630,339,10.17,52.37608,4.91822,0,0,-1,13.34219,10,1384329103,0.01928711,-0.5071259,-0.877243,4.677803,-23.51857,3.836533,186.1738,185.6949,16,0.0.0.0,10.139.130.79,3,1
2013-11-13 08:52:22.770,340,10.2,52.37608,4.91822,0,0,-1,13.39823,10,1384329104,0.04216003,-0.5113678,-0.8654633,5.944344,-22.25738,3.089989,190.2814,189.8025,16,0.0.0.0,10.139.130.79,3,1
2013-11-13 08:52:22.896,341,10.23,52.37608,4.91822,0,0,-1,13.39823,10,1384329104,0.0269928,-0.5130463,-0.8674469,8.422359,-21.87354,4.410789,192.4436,191.9647,16,0.0.0.0,10.139.130.79,3,1
2013-11-13 08:52:23.024,342,10.26,52.37608,4.91822,0,0,-1,13.39823,10,1384329104,0.006942749,-0.5049896,-0.8841248,9.303429,-21.3252,2.917709,195.9265,195.4476,16,0.0.0.0,10.139.130.79,3,1
2013-11-13 08:52:23.130,343,10.29,52.37608,4.91822,0,0,-1,13.39823,10,1384329104,0.01654053,-0.5063171,-0.9025574,9.028095,-20.72202,1.252365,197.0662,196.5873,16,0.0.0.0,10.139.130.79,3,1
2013-11-13 08:52:23.242,344,10.32,52.37608,4.91822,0,0,-1,13.39823,10,1384329104,0.02575684,-0.495636,-0.8908691,10.6801,-20.72202,0.3335419,199.0185,198.5396,16,0.0.0.0,10.139.130.79,3,1
2013-11-13 08:52:23.475,345,10.35,52.37608,4.91822,0,0,-1,13.39823,10,1384329104,0.01741028,-0.5061493,-0.8821106,12.38718,-20.00918,1.769196,199.5862,199.1073,16,0.0.0.0,10.139.130.79,3,1
2013-11-13 08:52:23.563,346,10.38,52.37608,4.91822,0,0,-1,13.39823,10,1384329104,0.007888794,-0.5049896,-0.8821564,12.38718,-20.9962,1.53949,200.0089,199.53,16,0.0.0.0,10.139.130.79,3,1
2013-11-13 08:52:23.702,347,10.41,52.37608,4.91822,0,0,-1,13.39823,10,1384329104,0.0252533,-0.5189819,-0.8781586,12.38718,-20.55753,2.573158,201.7166,201.2377,16,0.0.0.0,10.139.130.79,3,1
2013-11-13 08:52:23.898,348,10.44,52.37608,4.91822,0,0,-1,13.39823,10,1384329104,0.04135132,-0.5191345,-0.8605652,12.88279,-19.40601,1.137512,203.6309,203.1519,16,0.0.0.0,10.139.130.79,3,1
2013-11-13 08:52:23.997,349,10.47,52.37608,4.91822,0,0,-1,13.39823,10,1384329104,0.01010132,-0.524353,-0.8587341,14.36959,-18.69316,0.8503799,204.691,204.2121,16,0.0.0.0,10.139.130.79,3,1
2013-11-13 08:52:24.105,350,10.5,52.37608,4.91822,0,0,-1,13.39823,10,1384329104,0.01010132,-0.524353,-0.8587341,14.81013,-19.68017,2.688011,204.5108,204.0318,16,0.0.0.0,10.139.130.79,3,1
2013-11-13 08:52:24.270,351,10.53,52.37608,4.91822,0,0,-1,13.4815,10,1384329105,0.06730652,-0.5267029,-0.8847961,14.8652,-19.62534,2.286026,204.5532,204.0743,16,0.0.0.0,10.139.130.79,3,1
2013-11-13 08:52:24.503,352,10.56,52.37608,4.91822,0,0,-1,13.4815,10,1384329105,0.03852844,-0.5190887,-0.8625336,15.6912,-18.9125,1.654335,206.3501,205.8712,16,0.0.0.0,10.139.130.79,3,1
2013-11-13 08:52:24.590,353,10.59,52.37608,4.91822,0,0,-1,13.4815,10,1384329105,0.0196991,-0.5266266,-0.8713379,14.64493,-20.17369,1.482063,206.5289,206.05,16,0.0.0.0,10.139.130.79,3,1
2013-11-13 08:52:24.706,354,10.62,52.37608,4.91822,0,0,-1,13.4815,10,1384329105,0.02552795,-0.531662,-0.8751984,13.59866,-19.35117,0.5058212,206.5069,206.0279,16,0.0.0.0,10.139.130.79,3,1
2013-11-13 08:52:24.808,355,10.65,52.37608,4.91822,0,0,-1,13.4815,10,1384329105,0.02552795,-0.531662,-0.8751984,13.21319,-19.18666,0.1038437,205.1586,204.6797,16,0.0.0.0,10.139.130.79,3,1
2013-11-13 08:52:24.952,356,10.68,52.37608,4.91822,0,0,-1,13.4815,10,1384329105,0.0925293,-0.5524139,-0.8622284,13.04799,-20.22852,0.276123,202.8917,202.4128,16,0.0.0.0,10.139.130.79,3,1
2013-11-13 08:52:25.067,357,10.71,52.37608,4.91822,0,0,-1,13.4815,10,1384329105,0.0925293,-0.5524139,-0.8622284,11.67131,-21.48971,-3.456566,195.3969,194.918,16,0.0.0.0,10.139.130.79,3,1
2013-11-13 08:52:25.171,358,10.74,52.37608,4.91822,0,0,-1,13.4815,10,1384329105,0.07717896,-0.5490723,-0.8506165,8.36729,-23.68307,-1.504089,188.1158,187.6368,16,0.0.0.0,10.139.130.79,3,1
2013-11-13 08:52:25.260,359,10.77,52.37608,4.91822,0,0,-1,13.4815,10,1384329105,0.05625916,-0.5496368,-0.8497162,6.770351,-23.84757,-3.169434,184.0153,183.5364,16,0.0.0.0,10.139.130.79,3,1
2013-11-13 08:52:25.460,360,10.8,52.37608,4.91822,0,0,-1,13.4815,10,1384329105,0.06898499,-0.5636749,-0.8613129,7.81662,-22.80572,-3.91597,182.8213,182.3423,16,0.0.0.0,10.139.130.79,3,1
2013-11-13 08:52:25.584,361,10.83,52.37608,4.91822,0,0,-1,13.4815,10,1384329105,0.09156799,-0.5580292,-0.8359222,7.761555,-23.51856,-0.6427002,179.8563,179.3773,16,0.0.0.0,10.139.130.79,3,1
2013-11-13 08:52:25.695,362,10.86,52.37608,4.91822,0,0,-1,13.4815,10,1384329105,0.1099701,-0.5777283,-0.812439,6.329815,-23.18956,-0.1832886,174.8968,174.4179,16,0.0.0.0,10.139.130.79,3,1
2013-11-13 08:52:25.821,363,10.89,52.37608,4.91822,0,0,-1,13.4815,10,1384329105,0.1089478,-0.5700531,-0.8319244,5.889275,-23.4089,0.04641724,176.9324,176.4535,16,0.0.0.0,10.139.130.79,3,1
2013-11-13 08:52:25.914,364,10.92,52.37603,4.918281,3.879063,0,-1,13.56054,10,1384329106,0.1328888,-0.5821075,-0.8133087,6.935551,-22.14771,0.1038437,176.9952,176.5163,16,0.0.0.0,10.139.130.79,3,1
2013-11-13 08:52:26.790,365,10.95,52.37603,4.918281,3.879063,0,-1,13.56054,10,1384329106,0.1378784,-0.5938568,-0.8064423,6.38488,-23.5734,0.3335419,177.0678,176.5889,16,0.0.0.0,10.139.130.79,3,1
2013-11-13 08:52:27.155,366,10.98,52.37603,4.918281,3.879063,0,-1,13.56054,10,1384329106,0.1483002,-0.59021,-0.8132324,5.66901,-23.51857,-1.331802,172.793,172.3141,16,0.0.0.0,10.139.130.79,3,1
2013-11-13 08:52:27.721,367,11.01,52.37603,4.918281,3.879063,0,-1,13.56054,10,1384329106,0.1566772,-0.5844421,-0.8025055,6.880486,-24.17657,-1.331802,173.6247,173.1458,16,0.0.0.0,10.139.130.79,3,1
2013-11-13 08:52:28.149,368,11.04,52.37603,4.918281,3.879063,0,-1,13.56054,10,1384329106,0.1731415,-0.6040039,-0.7692871,8.25716,-21.59937,-0.1258621,183.0855,182.6066,16,0.0.0.0,10.139.130.79,3,1
2013-11-13 08:52:28.315,369,11.07,52.37603,4.918281,3.879063,0,-1,13.56054,10,1384329106,0.1731415,-0.6040039,-0.7692871,7.81662,-19.95435,-1.044678,183.3605,182.8816,16,0.0.0.0,10.139.130.79,3,1
2013-11-13 08:52:28.567,370,11.1,52.37603,4.918281,3.879063,0,-1,13.56054,10,1384329106,0.1730957,-0.6011353,-0.7751465,7.210884,-20.55753,-1.102104,182.5885,182.1096,16,0.0.0.0,10.139.130.79,3,1
2013-11-13 08:52:28.723,371,11.13,52.37603,4.918281,3.879063,0,-1,13.56054,10,1384329106,0.1664886,-0.6048431,-0.7693176,6.880486,-20.77686,-2.135773,179.6424,179.1634,16,0.0.0.0,10.139.130.79,3,1
2013-11-13 08:52:29.268,372,11.16,52.37603,4.918281,4.377419,0,-1,13.68746,10,1384329107,0.2151031,-0.6087799,-0.7720337,6.054478,-20.94136,-2.767456,177.1305,176.6516,16,0.0.0.0,10.139.130.79,3,1
2013-11-13 08:52:29.757,373,11.19,52.37603,4.918281,4.377419,0,-1,13.68746,10,1384329107,0.2323456,-0.6140289,-0.7758331,5.944344,-20.28336,-2.882309,176.9826,176.5036,16,0.0.0.0,10.139.130.79,3,1
2013-11-13 08:52:30.027,374,11.22,52.37603,4.918281,4.377419,0,-1,13.68746,10,1384329107,0.2124939,-0.6185608,-0.7798004,5.338604,-19.13183,-3.973404,177.5583,177.0794,16,0.0.0.0,10.139.130.79,3,1
2013-11-13 08:52:30.144,375,11.25,52.37603,4.918281,4.377419,0,-1,13.68746,10,1384329107,0.220108,-0.6196442,-0.7749176,4.843006,-18.748,-4.949646,178.273,177.7941,16,0.0.0.0,10.139.130.79,3,1
2013-11-13 08:52:30.280,376,11.28,52.37603,4.918281,4.377419,0,-1,13.68746,10,1384329107,0.2521667,-0.6103973,-0.7631226,4.787937,-18.80283,-5.581329,180.8854,180.4065,16,0.0.0.0,10.139.130.79,3,1
2013-11-13 08:52:30.515,377,11.31,52.37603,4.918281,4.377419,0,-1,13.68746,10,1384329107,0.2405396,-0.6041412,-0.7446899,6.770351,-16.4998,-5.466476,198.5082,198.0292,16,0.0.0.0,10.139.130.79,3,1
2013-11-13 08:52:30.616,378,11.34,52.37603,4.918281,4.377419,0,-1,13.68746,10,1384329107,0.2476044,-0.6200562,-0.7592163,7.541286,-15.62245,-5.351624,201.1131,200.6341,16,0.0.0.0,10.139.130.79,3,1
2013-11-13 08:52:30.745,379,11.37,52.37603,4.918281,4.377419,0,-1,13.68746,10,1384329107,0.2506561,-0.6307678,-0.7484741,8.752758,-14.96444,-4.892212,201.759,201.28,16,0.0.0.0,10.139.130.79,3,1
2013-11-13 08:52:30.898,380,11.4,52.37603,4.918281,0,0,-1,13.80718,10,1384329108,0.2506561,-0.6307678,-0.7484741,10.6801,-14.2516,-4.490234,203.6764,203.1975,16,0.0.0.0,10.139.130.79,3,1
2013-11-13 08:52:30.980,381,11.43,52.37603,4.918281,0,0,-1,13.80718,10,1384329108,0.2571716,-0.6268616,-0.7348328,12.55238,-12.93558,-3.341713,206.0723,205.5934,16,0.0.0.0,10.139.130.79,3,1
2013-11-13 08:52:31.092,382,11.46,52.37603,4.918281,0,0,-1,13.80718,10,1384329108,0.2666321,-0.6203918,-0.755249,13.87399,-12.82591,-1.389236,206.37,205.8911,16,0.0.0.0,10.139.130.79,3,1
2013-11-13 08:52:31.205,383,11.49,52.37603,4.918281,0,0,-1,13.80718,10,1384329108,0.2569427,-0.6179962,-0.7280273,15.8564,-9.974535,-4.490234,215.995,215.516,16,0.0.0.0,10.139.130.79,3,1
2013-11-13 08:52:31.369,384,11.52,52.37603,4.918281,0,0,-1,13.80718,10,1384329108,0.2428894,-0.6228027,-0.7494965,17.06788,-5.807139,-0.5852661,220.6937,220.2148,16,0.0.0.0,10.139.130.79,3,1
2013-11-13 08:52:31.515,385,11.55,52.37603,4.918281,0,0,-1,13.80718,10,1384329108,0.2860107,-0.6382751,-0.7454071,17.67361,-3.778274,-0.0684433,228.1036,227.6247,16,0.0.0.0,10.139.130.79,3,1
2013-11-13 08:52:31.719,386,11.58,52.37603,4.918281,0,0,-1,13.80718,10,1384329108,0.3106232,-0.6152496,-0.6285248,18.99522,-1.255905,-1.331802,235.6651,235.1862,16,0.0.0.0,10.139.130.79,3,1
2013-11-13 08:52:31.810,387,11.61,52.37603,4.918281,0,0,-1,13.80718,10,1384329108,0.3143768,-0.6413269,-0.6936646,18.88509,-1.475245,-0.8723984,236.8795,236.4006,16,0.0.0.0,10.139.130.79,3,1
2013-11-13 08:52:31.929,388,11.64,52.37603,4.918281,0,0,-1,13.80718,10,1384329108,0.2494507,-0.6171417,-0.7563019,15.526,-2.517091,-5.40905,236.079,235.6001,16,0.0.0.0,10.139.130.79,3,1
2013-11-13 08:52:32.022,389,11.67,52.37603,4.918281,0,0,-1,13.80718,10,1384329108,0.2897339,-0.6354065,-0.7434387,12.49731,-4.107282,-7.763512,237.8266,237.3476,16,0.0.0.0,10.139.130.79,3,1
2013-11-13 08:52:32.123,390,11.7,52.37603,4.918281,0,0,-1,13.80718,10,1384329108,0.2974396,-0.6394653,-0.7424316,7.70649,-5.258798,-11.38135,241.0242,240.5452,16,0.0.0.0,10.139.130.79,3,1
2013-11-13 08:52:32.249,391,11.73,52.37603,4.918281,0,0,-1,13.96491,10,1384329109,0.3030701,-0.6375885,-0.7375336,2.089657,-8.000505,-12.64472,256.0556,255.5767,16,0.0.0.0,10.139.130.79,3,1
2013-11-13 08:52:32.480,392,11.76,52.37603,4.918281,0,0,-1,13.96491,10,1384329109,0.2964783,-0.6384735,-0.7453613,-1.104229,-9.316524,-11.84076,266.1222,265.6433,16,0.0.0.0,10.139.130.79,3,1
2013-11-13 08:52:32.564,393,11.79,52.37603,4.918281,0,0,-1,13.96491,10,1384329109,0.2964783,-0.6384735,-0.7453613,0.382576,-9.15202,-10.74966,270.2538,269.7749,16,0.0.0.0,10.139.130.79,3,1
2013-11-13 08:52:32.646,394,11.82,52.37603,4.918281,0,0,-1,13.96491,10,1384329109,0.2803802,-0.6467438,-0.7210388,-1.269432,-9.70036,-12.12789,270.2914,269.8125,16,0.0.0.0,10.139.130.79,3,1
2013-11-13 08:52:32.762,395,11.85,52.37603,4.918281,0,0,-1,13.96491,10,1384329109,0.3008118,-0.6154022,-0.5574951,-0.3332939,-9.64553,-12.98928,282.6325,282.1536,16,0.0.0.0,10.139.130.79,3,1
2013-11-13 08:52:32.882,396,11.88,52.37603,4.918281,0,0,-1,13.96491,10,1384329109,0.226181,-0.5775146,-0.8577423,-0.7738304,-16.00629,-15.97542,300.4567,299.9778,16,0.0.0.0,10.139.130.79,3,1
2013-11-13 08:52:32.981,397,11.91,52.37603,4.918281,0,0,-1,13.96491,10,1384329109,0.2003632,-0.5664215,-0.8783264,-1.4897,-16.4998,-20.85663,287.5473,287.0684,16,0.0.0.0,10.139.130.79,3,1
2013-11-13 08:52:33.088,398,11.94,52.37603,4.918281,0,0,-1,13.96491,10,1384329109,0.2431946,-0.5870209,-0.7904663,-2.591038,-20.11885,-28.78142,276.2318,275.7529,16,0.0.0.0,10.139.130.79,3,1
2013-11-13 08:52:33.189,399,11.97,52.37603,4.918281,0,0,-1,13.96491,10,1384329109,0.243515,-0.607254,-0.7563477,-4.573452,-28.56331,-45.32008,270.3494,269.8705,16,0.0.0.0,10.139.130.79,3,1
2013-11-13 08:52:33.271,400,12,52.37603,4.918281,0,0,-1,13.96491,10,1384329109,0.2134094,-0.5783386,-0.760437,-7.712269,-37.39161,-66.73996,262.6055,262.1266,16,0.0.0.0,10.139.130.79,3,1
2013-11-13 08:52:33.496,401,12.03,52.37603,4.918281,0.1580353,0,-1,14.12633,10,1384329110,0.2134094,-0.5783386,-0.760437,-10.19028,-42.49118,-70.47266,258.5337,258.0548,16,0.0.0.0,10.139.130.79,3,1
2013-11-13 08:52:33.619,402,12.06,52.37603,4.918281,0.1580353,0,-1,14.12633,10,1384329110,0.1788177,-0.5517578,-0.8151703,-13.27403,-52.79999,-63.00728,258.1794,257.7005,16,0.0.0.0,10.139.130.79,3,1
2013-11-13 08:52:33.731,403,12.09,52.37603,4.918281,0.1580353,0,-1,14.12633,10,1384329110,0.1134796,-0.548233,-0.8933105,-12.22777,-65.57635,-44.22899,257.0065,256.5276,16,0.0.0.0,10.139.130.79,3,1
2013-11-13 08:52:33.861,404,12.12,52.37603,4.918281,0.1580353,0,-1,14.12633,10,1384329110,0.1735687,-0.5646667,-0.8502045,-9.25415,-71.49845,-35.72995,244.3831,243.9042,16,0.0.0.0,10.139.130.79,3,1
2013-11-13 08:52:33.961,405,12.15,52.37603,4.918281,0.1580353,0,-1,14.12633,10,1384329110,0.1820526,-0.5684814,-0.8190002,-12.8335,-76.59802,-57.95378,233.9274,233.4485,16,0.0.0.0,10.139.130.79,3,1
2013-11-13 08:52:34.086,406,12.18,52.37603,4.918281,0.1580353,0,-1,14.12633,10,1384329110,0.1598969,-0.559967,-0.7918396,-17.5142,-77.31086,-73.40137,231.5494,231.0704,16,0.0.0.0,10.139.130.79,3,1
2013-11-13 08:52:34.155,407,12.21,52.37603,4.918281,0.1580353,0,-1,14.12633,10,1384329110,0.1349335,-0.5431671,-0.8280029,-15.91725,-80.32674,-64.15579,232.952,232.4731,16,0.0.0.0,10.139.130.79,3,1
2013-11-13 08:52:34.261,408,12.24,52.37603,4.918281,0.1580353,0,-1,14.12633,10,1384329110,0.07608032,-0.5347748,-0.891571,-11.1815,-83.39745,-46.92801,230.9569,230.478,16,0.0.0.0,10.139.130.79,3,1
2013-11-13 08:52:34.486,409,12.27,52.37603,4.918281,0.1580353,0,-1,14.12633,10,1384329110,0.06817627,-0.5209503,-0.8935699,-9.970016,-82.84911,-39.69234,222.9578,222.4788,16,0.0.0.0,10.139.130.79,3,1
2013-11-13 08:52:34.578,410,12.3,52.37603,4.918281,0.1580353,0,-1,14.12633,10,1384329110,0.1035614,-0.5341339,-0.8700409,-8.758545,-81.86211,-33.60519,218.4193,217.9403,16,0.0.0.0,10.139.130.79,3,1
2013-11-13 08:52:34.714,411,12.33,52.37603,4.918281,0.1580353,0,-1,14.12633,10,1384329110,0.1153412,-0.5519562,-0.8699493,-11.12643,-86.08434,-44.45869,210.7882,210.3093,16,0.0.0.0,10.139.130.79,3,1
2013-11-13 08:52:34.824,412,12.36,52.37603,4.918281,0.1580353,0,-1,14.12633,10,1384329110,0.1153412,-0.5519562,-0.8699493,-13.93484,-86.68752,-58.29836,209.9442,209.4652,16,0.0.0.0,10.139.130.79,3,1
2013-11-13 08:52:34.906,413,12.39,52.37603,4.918281,0.1580353,0,-1,14.12633,10,1384329110,0.09220886,-0.5405884,-0.8515625,-12.8335,-82.52013,-64.50035,209.6127,209.1338,16,0.0.0.0,10.139.130.79,3,1
2013-11-13 08:52:35.006,414,12.42,52.37603,4.918281,0.1580353,0,-1,14.12633,10,1384329110,0.06929016,-0.5409241,-0.8302307,-11.95243,-79.23006,-71.62117,208.4184,207.9395,16,0.0.0.0,10.139.130.79,3,1
2013-11-13 08:52:35.110,415,12.45,52.37603,4.918281,0.1580353,0,-1,14.12633,10,1384329110,0.04838562,-0.5395966,-0.838089,-10.96122,-77.80437,-74.60732,208.9819,208.503,16,0.0.0.0,10.139.130.79,3,1
2013-11-13 08:52:35.211,416,12.48,52.37603,4.918281,0,0,-1,14.42414,10,1384329111,0.03785706,-0.5355225,-0.8439941,-12.0075,-77.74954,-75.4687,210.2556,209.7766,16,0.0.0.0,10.139.130.79,3,1
2013-11-13 08:52:35.441,417,12.51,52.37603,4.918281,0,0,-1,14.42414,10,1384329111,0.04740906,-0.5329895,-0.8673248,-12.8335,-78.13337,-64.84491,213.357,212.878,16,0.0.0.0,10.139.130.79,3,1
2013-11-13 08:52:35.515,418,12.54,52.37603,4.918281,0,0,-1,14.42414,10,1384329111,0.05024719,-0.5320892,-0.869278,-9.364281,-69.52441,-43.19533,216.4193,215.9403,16,0.0.0.0,10.139.130.79,3,1
2013-11-13 08:52:35.626,419,12.57,52.37603,4.918281,0,0,-1,14.42414,10,1384329111,0.0567627,-0.5300751,-0.8468475,-8.318008,-40.29781,-15.4586,223.1033,222.6243,16,0.0.0.0,10.139.130.79,3,1
2013-11-13 08:52:35.772,420,12.6,52.37603,4.918281,0,0,-1,14.42414,10,1384329111,0.03961182,-0.5259552,-0.8625031,-6.886265,-32.62104,-12.81699,224.4555,223.9766,16,0.0.0.0,10.139.130.79,3,1
2013-11-13 08:52:35.881,421,12.63,52.37603,4.918281,0,0,-1,14.42414,10,1384329111,0.02519226,-0.5160217,-0.8762207,-6.610928,-35.3079,-14.48235,224.2914,223.8125,16,0.0.0.0,10.139.130.79,3,1
2013-11-13 08:52:35.979,422,12.66,52.37603,4.918281,0,0,-1,14.42414,10,1384329111,0.02154541,-0.5209198,-0.8859558,-6.060261,-44.84904,-20.45465,223.9923,223.5134,16,0.0.0.0,10.139.130.79,3,1
2013-11-13 08:52:36.100,423,12.69,52.37603,4.918281,0,0,-1,14.42414,10,1384329111,0.02154541,-0.5209198,-0.8859558,-7.932537,-73.58213,-43.19533,222.0292,221.5502,16,0.0.0.0,10.139.130.79,3,1
2013-11-13 08:52:36.200,424,12.72,52.37603,4.918281,0,0,-1,14.42414,10,1384329111,-0.002319336,-0.5164948,-0.8811951,-11.1815,-88.66153,-53.13002,221.4969,221.018,16,0.0.0.0,10.139.130.79,3,1
2013-11-13 08:52:36.278,425,12.75,52.37603,4.918281,0,0,-1,14.42414,10,1384329111,-0.002319336,-0.5164948,-0.8811951,-11.67709,-88.71636,-52.26863,221.2747,220.7958,16,0.0.0.0,10.139.130.79,3,1
2013-11-13 08:52:36.501,426,12.78,52.37603,4.918281,0,0,-1,14.42414,10,1384329111,-0.00982666,-0.4820099,-0.8647766,-10.90616,-88.27769,-49.39732,220.7053,220.2264,16,0.0.0.0,10.139.130.79,3,1
2013-11-13 08:52:36.580,427,12.81,52.37603,4.918281,0,0,-1,14.42414,10,1384329111,-0.02116394,-0.4819336,-0.8823395,-10.08015,-88.11319,-45.89435,220.123,219.6441,16,0.0.0.0,10.139.130.79,3,1
2013-11-13 08:52:36.717,428,12.84,52.37603,4.918281,0.7166672,0,-1,14.66125,10,1384329112,-0.03596497,-0.4955292,-0.9067078,-9.584549,-87.83903,-44.34384,218.1866,217.7077,16,0.0.0.0,10.139.130.79,3,1
2013-11-13 08:52:36.798,429,12.87,52.37603,4.918281,0.7166672,0,-1,14.66125,10,1384329112,-0.07202148,-0.5024872,-0.8892975,-10.35548,-88.71638,-47.10029,215.3777,214.8987,16,0.0.0.0,10.139.130.79,3,1
2013-11-13 08:52:36.938,430,12.9,52.37603,4.918281,0.7166672,0,-1,14.66125,10,1384329112,-0.06707764,-0.5123138,-0.8853607,-12.11763,-90.03239,-57.43697,208.8171,208.3382,16,0.0.0.0,10.139.130.79,3,1
2013-11-13 08:52:37.035,431,12.93,52.37603,4.918281,0.7166672,0,-1,14.66125,10,1384329112,-0.06707764,-0.5123138,-0.8853607,-14.65071,-90.03239,-62.49045,207.3418,206.8628,16,0.0.0.0,10.139.130.79,3,1
2013-11-13 08:52:37.115,432,12.96,52.37603,4.918281,0.7166672,0,-1,14.66125,10,1384329112,-0.07107544,-0.5034332,-0.8844299,-13.4943,-89.75822,-54.73795,212.0577,211.5787,16,0.0.0.0,10.139.130.79,3,1
2013-11-13 08:52:37.211,433,12.99,52.37603,4.918281,0.7166672,0,-1,14.66125,10,1384329112,-0.07699585,-0.491684,-0.8951874,-11.40176,-88.4422,-45.89435,215.3276,214.8487,16,0.0.0.0,10.139.130.79,3,1
2013-11-13 08:52:37.391,434,13.02,52.37603,4.918281,0.7166672,0,-1,14.66125,10,1384329112,-0.09069824,-0.4794312,-0.8680115,-3.141708,-72.43063,-43.25275,227.5504,227.0714,16,0.0.0.0,10.139.130.79,3,1
2013-11-13 08:52:37.535,435,13.05,52.37603,4.918281,0.7166672,0,-1,14.66125,10,1384329112,-0.0848999,-0.4806976,-0.8855286,4.677803,-46.43925,-32.57153,240.3454,239.8665,16,0.0.0.0,10.139.130.79,3,1
2013-11-13 08:52:37.630,436,13.08,52.37603,4.918281,0.7166672,0,-1,14.66125,10,1384329112,-0.08740234,-0.493454,-0.8981323,3.851799,-11.83891,-21.83287,238.2082,237.7293,16,0.0.0.0,10.139.130.79,3,1
2013-11-13 08:52:37.756,437,13.11,52.37603,4.918281,0.7166672,0,-1,14.66125,10,1384329112,-0.07733154,-0.4797974,-0.8777161,3.906864,-2.900944,-17.18137,238.7431,238.2642,16,0.0.0.0,10.139.130.79,3,1
2013-11-13 08:52:37.848,438,13.14,52.37603,4.918281,0.7166672,0,-1,14.66125,10,1384329112,-0.07545471,-0.4760437,-0.8913116,6.550079,1.04711,-16.60711,235.0964,234.6175,16,0.0.0.0,10.139.130.79,3,1
2013-11-13 08:52:37.931,439,13.17,52.37603,4.918281,0.7166672,0,-1,14.66125,10,1384329112,-0.08293152,-0.4798737,-0.8991241,10.12944,2.637295,-19.88039,230.8793,230.4003,16,0.0.0.0,10.139.130.79,3,1
2013-11-13 08:52:38.039,440,13.2,52.37603,4.918281,0,0,-1,14.50206,10,1384329113,-0.08293152,-0.4798737,-0.8991241,12.55238,-1.420426,-20.45465,226.8383,226.3593,16,0.0.0.0,10.139.130.79,3,1
2013-11-13 08:52:38.139,441,13.23,52.37603,4.918281,0,0,-1,14.50206,10,1384329113,-0.06213379,-0.4781799,-0.8834839,14.69999,-9.152035,-20.05267,218.1199,217.641,16,0.0.0.0,10.139.130.79,3,1
2013-11-13 08:52:38.231,442,13.26,52.37603,4.918281,0,0,-1,14.50206,10,1384329113,-0.06213379,-0.4781799,-0.8834839,17.78375,-13.7581,-21.43089,217.9824,217.5034,16,0.0.0.0,10.139.130.79,3,1
2013-11-13 08:52:38.442,443,13.29,52.37603,4.918281,0,0,-1,14.50206,10,1384329113,-0.06411743,-0.4751892,-0.8796082,24.88739,-18.63834,-28.14973,218.6876,218.2087,16,0.0.0.0,10.139.130.79,3,1
2013-11-13 08:52:38.524,444,13.32,52.37603,4.918281,0,0,-1,14.50206,10,1384329113,-0.06980896,-0.4741821,-0.8874207,32.92717,-27.52148,-35.50024,220.1416,219.6627,16,0.0.0.0,10.139.130.79,3,1
2013-11-13 08:52:38.630,445,13.35,52.37603,4.918281,0,0,-1,14.50206,10,1384329113,-0.07542419,-0.4817047,-0.8698883,33.75317,-42.05252,-31.30815,212.8876,212.4086,16,0.0.0.0,10.139.130.79,3,1
2013-11-13 08:52:38.763,446,13.38,52.37603,4.918281,0,0,-1,14.50206,10,1384329113,-0.08207703,-0.4797211,-0.8796692,29.78835,-34.1564,-32.45667,211.5414,211.0625,16,0.0.0.0,10.139.130.79,3,1
2013-11-13 08:52:38.864,447,13.41,52.37603,4.918281,0,0,-1,14.50206,10,1384329113,-0.07722473,-0.4818878,-0.8932648,26.5394,-22.69607,-31.25073,207.4929,207.014,16,0.0.0.0,10.139.130.79,3,1
2013-11-13 08:52:38.967,448,13.44,52.37603,4.918281,0,0,-1,14.50206,10,1384329113,-0.07632446,-0.4790192,-0.8971558,14.58986,-12.33242,-22.23486,204.5705,204.0916,16,0.0.0.0,10.139.130.79,3,1
2013-11-13 08:52:39.068,449,13.47,52.37603,4.918281,0,0,-1,14.50206,10,1384329113,-0.09242249,-0.4806976,-0.9030609,9.083164,-10.6874,-19.82296,200.6956,200.2167,16,0.0.0.0,10.139.130.79,3,1
2013-11-13 08:52:39.163,450,13.5,52.37603,4.918281,0,0,-1,14.50206,10,1384329113,-0.1076355,-0.4841156,-0.8826599,14.42466,-9.426205,-30.67647,201.0787,200.5998,16,0.0.0.0,10.139.130.79,3,1
2013-11-13 08:52:39.288,451,13.53,52.37603,4.918281,0,0,-1,14.50206,10,1384329113,-0.08773804,-0.4806519,-0.8874664,25.65833,-12.05825,-35.95966,198.5121,198.0332,16,0.0.0.0,10.139.130.79,3,1
2013-11-13 08:52:39.537,452,13.56,52.37603,4.918281,3.116333,0,-1,14.83216,10,1384329114,-0.07720947,-0.4809723,-0.8991089,35.73559,-16.28048,-38.42897,198.6118,198.1329,16,0.0.0.0,10.139.130.79,3,1
2013-11-13 08:52:39.703,453,13.59,52.37603,4.918281,3.116333,0,-1,14.83216,10,1384329114,-0.07720947,-0.4809723,-0.8991089,39.59028,-21.10588,-42.21909,198.7578,198.2789,16,0.0.0.0,10.139.130.79,3,1
2013-11-13 08:52:39.807,454,13.62,52.37603,4.918281,3.116333,0,-1,14.83216,10,1384329114,-0.0801239,-0.4808044,-0.8874359,39.42508,-25.54744,-44.80325,199.3731,198.8941,16,0.0.0.0,10.139.130.79,3,1
2013-11-13 08:52:39.903,455,13.65,52.37603,4.918281,3.116333,0,-1,14.83216,10,1384329114,-0.0801239,-0.4808044,-0.8874359,38.92947,-28.12465,-47.50227,199.52,199.0411,16,0.0.0.0,10.139.130.79,3,1
2013-11-13 08:52:39.974,456,13.68,52.37603,4.918281,3.116333,0,-1,14.83216,10,1384329114,-0.0859375,-0.4758148,-0.888443,35.95586,-29.55034,-46.92801,198.4774,197.9984,16,0.0.0.0,10.139.130.79,3,1
2013-11-13 08:52:40.075,457,13.71,52.37603,4.918281,3.116333,0,-1,14.83216,10,1384329114,-0.08656311,-0.4913788,-0.8825684,32.26637,-30.59219,-44.80325,196.136,195.6571,16,0.0.0.0,10.139.130.79,3,1
2013-11-13 08:52:40.179,458,13.74,52.37603,4.918281,3.116333,0,-1,14.83216,10,1384329114,-0.09039307,-0.4893951,-0.8874512,30.33902,-36.45944,-44.74583,190.8399,190.361,16,0.0.0.0,10.139.130.79,3,1
2013-11-13 08:52:40.279,459,13.77,52.37603,4.918281,3.116333,0,-1,14.83216,10,1384329114,-0.08752441,-0.4894867,-0.8903503,28.68701,-38.10446,-46.6983,189.4103,188.9314,16,0.0.0.0,10.139.130.79,3,1
2013-11-13 08:52:40.502,460,13.8,52.37603,4.918281,3.116333,0,-1,14.83216,10,1384329114,-0.08105469,-0.4808197,-0.8913422,31.38529,-35.41759,-54.56567,190.0304,189.5515,16,0.0.0.0,10.139.130.79,3,1
2013-11-13 08:52:40.620,461,13.83,52.37603,4.918281,3.116333,0,-1,14.83216,10,1384329114,-0.08105469,-0.4808197,-0.8913422,27.80594,-29.002,-56.92014,179.4871,179.0081,16,0.0.0.0,10.139.130.79,3,1
2013-11-13 08:52:40.712,462,13.86,52.37603,4.918281,3.116333,0,-1,14.83216,10,1384329114,-0.07167053,-0.4770203,-0.8835144,25.43806,-33.55323,-55.36961,174.1947,173.7158,16,0.0.0.0,10.139.130.79,3,1
2013-11-13 08:52:40.895,463,13.89,52.37603,4.918281,3.116333,0,-1,14.83216,10,1384329114,-0.07167053,-0.477951,-0.8776855,22.07897,-38.43347,-54.73795,170.8246,170.3456,16,0.0.0.0,10.139.130.79,3,1
2013-11-13 08:52:41.014,464,13.92,52.37603,4.918281,3.116333,0,-1,14.83216,10,1384329114,-0.07470703,-0.470047,-0.8767242,18.55468,-42.4912,-54.39339,164.414,163.9351,16,0.0.0.0,10.139.130.79,3,1
2013-11-13 08:52:41.140,465,13.95,52.37603,4.918281,3.116333,0,-1,14.83216,10,1384329114,-0.07923889,-0.4759979,-0.8952179,16.57227,-43.91688,-46.6983,165.2996,164.8206,16,0.0.0.0,10.139.130.79,3,1
2013-11-13 08:52:41.237,466,13.98,52.37603,4.918281,3.181641,0,-1,15.14996,10,1384329115,-0.079422,-0.470047,-0.8855133,16.24187,-44.13622,-41.18542,164.2365,163.7576,16,0.0.0.0,10.139.130.79,3,1
2013-11-13 08:52:41.438,467,14.01,52.37603,4.918281,3.181641,0,-1,15.14996,10,1384329115,-0.08007812,-0.4799347,-0.9001007,9.193295,-45.45224,-15.4586,158.6652,158.1863,16,0.0.0.0,10.139.130.79,3,1
2013-11-13 08:52:41.515,468,14.04,52.37603,4.918281,3.181641,0,-1,15.14996,10,1384329115,-0.08682251,-0.4759216,-0.9030457,13.92906,-45.45224,-25.56556,161.6875,161.2085,16,0.0.0.0,10.139.130.79,3,1
2013-11-13 08:52:41.593,469,14.07,52.37603,4.918281,3.181641,0,-1,15.14996,10,1384329115,-0.08682251,-0.4759216,-0.9030457,20.26176,-39.58498,-33.31806,164.0141,163.5352,16,0.0.0.0,10.139.130.79,3,1
2013-11-13 08:52:41.694,470,14.1,52.37603,4.918281,3.181641,0,-1,15.14996,10,1384329115,-0.1001434,-0.4784546,-0.8884888,23.56578,-28.61816,-38.37154,162.5303,162.0513,16,0.0.0.0,10.139.130.79,3,1
2013-11-13 08:52:41.797,471,14.13,52.37603,4.918281,3.181641,0,-1,15.14996,10,1384329115,-0.0880127,-0.472641,-0.8680115,19.43576,-17.9255,-32.80123,164.9684,164.4895,16,0.0.0.0,10.139.130.79,3,1
2013-11-13 08:52:41.896,472,14.16,52.37603,4.918281,3.181641,0,-1,15.14996,10,1384329115,-0.09625244,-0.48526,-0.8757935,9.854099,-14.96446,-22.34971,163.6768,163.1979,16,0.0.0.0,10.139.130.79,3,1
2013-11-13 08:52:41.982,473,14.19,52.37603,4.918281,3.181641,0,-1,15.14996,10,1384329115,-0.1067963,-0.4802094,-0.880722,0.6028442,-16.60948,-13.39125,156.3952,155.9163,16,0.0.0.0,10.139.130.79,3,1
2013-11-13 08:52:42.528,474,14.22,52.37603,4.918281,3.181641,0,-1,15.14996,10,1384329115,-0.08959961,-0.4816284,-0.8903809,-2.756241,-18.19967,-8.165497,155.1378,154.6589,16,0.0.0.0,10.139.130.79,3,1
2013-11-13 08:52:42.774,475,14.25,52.37603,4.918281,3.181641,0,-1,15.14996,10,1384329115,-0.07939148,-0.4691467,-0.8942871,-10.41055,-16.71915,-8.10807,155.7549,155.2759,16,0.0.0.0,10.139.130.79,3,1
2013-11-13 08:52:42.897,476,14.28,52.37603,4.918281,3.181641,0,-1,15.14996,10,1384329115,-0.1004333,-0.4694824,-0.8690338,-14.04498,-14.85479,-7.993217,155.6233,155.1443,16,0.0.0.0,10.139.130.79,3,1
2013-11-13 08:52:42.991,477,14.31,52.37603,4.918281,3.181641,0,-1,15.14996,10,1384329115,-0.08781433,-0.4748993,-0.8991547,-18.175,-13.04526,-7.591232,154.5539,154.075,16,0.0.0.0,10.139.130.79,3,1
2013-11-13 08:52:43.093,478,14.34,52.37603,4.918281,3.181641,0,-1,15.14996,10,1384329115,-0.08009338,-0.4780426,-0.9069214,-20.26755,-11.1809,-5.753601,153.028,152.549,16,0.0.0.0,10.139.130.79,3,1
2013-11-13 08:52:43.201,479,14.37,52.37603,4.918281,2.015625,0,-1,15.37107,10,1384329116,-0.08009338,-0.4780426,-0.9069214,-20.98341,-11.0164,-3.514,151.7991,151.3202,16,0.0.0.0,10.139.130.79,3,1
2013-11-13 08:52:43.281,480,14.4,52.37603,4.918281,2.015625,0,-1,15.37107,10,1384329116,-0.08625793,-0.4621124,-0.8855743,-21.64422,-10.02938,-4.317955,152.3926,151.9137,16,0.0.0.0,10.139.130.79,3,1
2013-11-13 08:52:43.478,481,14.43,52.37603,4.918281,2.015625,0,-1,15.37107,10,1384329116,-0.08625793,-0.4621124,-0.8855743,-20.76315,-10.90673,-4.088257,157.0598,156.5809,16,0.0.0.0,10.139.130.79,3,1
2013-11-13 08:52:43.583,482,14.46,52.37603,4.918281,2.015625,0,-1,15.37107,10,1384329116,-0.07858276,-0.4642029,-0.8864899,-16.90846,-10.57772,-5.696182,161.7762,161.2973,16,0.0.0.0,10.139.130.79,3,1
2013-11-13 08:52:43.664,483,14.49,52.37603,4.918281,2.015625,0,-1,15.37107,10,1384329116,-0.0881958,-0.4638672,-0.8690033,-16.24765,-9.371374,-7.418961,163.2888,162.8099,16,0.0.0.0,10.139.130.79,3,1
2013-11-13 08:52:43.765,484,14.52,52.37603,4.918281,2.015625,0,-1,15.37107,10,1384329116,-0.1002045,-0.4755249,-0.8875122,-13.93484,-10.02938,-6.729843,160.8524,160.3734,16,0.0.0.0,10.139.130.79,3,1
2013-11-13 08:52:43.885,485,14.55,52.37603,4.918281,2.015625,0,-1,15.37107,10,1384329116,-0.09381104,-0.460144,-0.9021454,-13.76964,-10.41322,-8.96946,160.1252,159.6463,16,0.0.0.0,10.139.130.79,3,1
2013-11-13 08:52:43.960,486,14.58,52.37603,4.918281,2.015625,0,-1,15.37107,10,1384329116,-0.09910583,-0.4795685,-0.9011383,-12.77843,-11.40024,-10.34768,159.5229,159.044,16,0.0.0.0,10.139.130.79,3,1
2013-11-13 08:52:44.071,487,14.61,52.37603,4.918281,2.015625,0,-1,15.37107,10,1384329116,-0.09910583,-0.4795685,-0.9011383,-10.52068,-11.3454,-13.96552,162.5638,162.0849,16,0.0.0.0,10.139.130.79,3,1
2013-11-13 08:52:44.135,488,14.64,52.37603,4.918281,2.015625,0,-1,15.37107,10,1384329116,-0.09056091,-0.4796906,-0.8962555,-6.721062,-11.94858,-15.51601,165.6201,165.1412,16,0.0.0.0,10.139.130.79,3,1
2013-11-13 08:52:44.227,489,14.67,52.37603,4.918281,2.015625,0,-1,15.37107,10,1384329116,-0.09056091,-0.4796906,-0.8962555,4.622734,-15.12895,-24.47447,169.5869,169.108,16,0.0.0.0,10.139.130.79,3,1
2013-11-13 08:52:44.397,490,14.7,52.37603,4.918281,2.015625,0,-1,15.37107,10,1384329116,-0.0927887,-0.4669037,-0.8904266,12.88279,-35.19825,-28.37943,166.4852,166.0063,16,0.0.0.0,10.139.130.79,3,1
2013-11-13 08:52:44.507,491,14.73,52.37603,4.918281,2.015625,0,-1,15.37107,10,1384329116,-0.09373474,-0.4649811,-0.8963013,10.6801,-44.08138,-23.4408,164.7626,164.2837,16,0.0.0.0,10.139.130.79,3,1
2013-11-13 08:52:44.619,492,14.76,52.37603,4.918281,0,0,-1,15.56506,10,1384329117,-0.08546448,-0.4543457,-0.8914185,7.321018,-46.65858,-19.2487,162.7853,162.3063,16,0.0.0.0,10.139.130.79,3,1
2013-11-13 08:52:44.736,493,14.79,52.37603,4.918281,0,0,-1,15.56506,10,1384329117,-0.08540344,-0.459137,-0.8797302,9.028095,-45.28773,-17.81306,161.8434,161.3645,16,0.0.0.0,10.139.130.79,3,1
2013-11-13 08:52:44.810,494,14.82,52.37603,4.918281,0,0,-1,15.56506,10,1384329117,-0.07106018,-0.460495,-0.8913422,17.34321,-35.14342,-21.66059,162.8138,162.3348,16,0.0.0.0,10.139.130.79,3,1
2013-11-13 08:52:44.913,495,14.85,52.37603,4.918281,0,0,-1,15.56506,10,1384329117,-0.08164978,-0.454422,-0.8914032,20.42696,-29.98901,-24.30219,164.4328,163.9539,16,0.0.0.0,10.139.130.79,3,1
2013-11-13 08:52:45.023,496,14.88,52.37603,4.918281,0,0,-1,15.56506,10,1384329117,-0.08164978,-0.454422,-0.8914032,23.45565,-27.19247,-23.90021,165.3066,164.8276,16,0.0.0.0,10.139.130.79,3,1
2013-11-13 08:52:45.091,497,14.91,52.37603,4.918281,0,0,-1,15.56506,10,1384329117,-0.08152771,-0.4583893,-0.8982086,22.90498,-24.88944,-22.17743,166.7387,166.2598,16,0.0.0.0,10.139.130.79,3,1
2013-11-13 08:52:45.202,498,14.94,52.37603,4.918281,0,0,-1,15.56506,10,1384329117,-0.08537292,-0.458252,-0.8904266,29.40288,-19.62535,-22.29227,172.2399,171.761,16,0.0.0.0,10.139.130.79,3,1
2013-11-13 08:52:45.306,499,14.97,52.37603,4.918281,0,0,-1,15.56506,10,1384329117,-0.08132935,-0.4662476,-0.9020844,30.55929,-13.4291,-22.92397,174.0947,173.6157,16,0.0.0.0,10.139.130.79,3,1
2013-11-13 08:52:45.507,500,15,52.37603,4.918281,0,0,-1,15.56506,10,1384329117,-0.07940674,-0.4653778,-0.9098511,28.96235,-6.245826,-20.11009,173.8436,173.3647,16,0.0.0.0,10.139.130.79,3,1
2013-11-13 08:52:45.613,501,15.03,52.37603,4.918281,0,0,-1,15.56506,10,1384329117,-0.09365845,-0.4651184,-0.9118652,29.40288,-5.039473,-18.04276,173.4408,172.9619,16,0.0.0.0,10.139.130.79,3,1
2013-11-13 08:52:45.769,502,15.06,52.37603,4.918281,0,0,-1,15.56506,10,1384329117,-0.08712769,-0.4631958,-0.9011383,29.23768,-7.61668,-20.39722,174.1062,173.6273,16,0.0.0.0,10.139.130.79,3,1
2013-11-13 08:52:45.921,503,15.09,52.37603,4.918281,0,0,-1,15.56506,10,1384329117,-0.09390259,-0.4590759,-0.8914337,31.66063,-15.84181,-24.18734,171.6325,171.1536,16,0.0.0.0,10.139.130.79,3,1
2013-11-13 08:52:46.014,504,15.12,52.37603,4.918281,2.216324,0,-1,15.66453,10,1384329118,-0.07511902,-0.4496307,-0.8884735,31.5505,-16.28048,-26.48438,172.0073,171.5283,16,0.0.0.0,10.139.130.79,3,1
2013-11-13 08:52:46.113,505,15.15,52.37603,4.918281,2.216324,0,-1,15.66453,10,1384329118,-0.08279419,-0.4428101,-0.9070282,33.69811,-19.29635,-30.44676,173.6537,173.1748,16,0.0.0.0,10.139.130.79,3,1
2013-11-13 08:52:46.219,506,15.18,52.37603,4.918281,2.216324,0,-1,15.66453,10,1384329118,-0.08279419,-0.4428101,-0.9070282,27.42047,-32.12754,-21.48832,161.0932,160.6143,16,0.0.0.0,10.139.130.79,3,1
2013-11-13 08:52:46.298,507,15.21,52.37603,4.918281,2.216324,0,-1,15.66453,10,1384329118,-0.07357788,-0.4293365,-0.9099274,25.65833,-33.00489,-16.89424,153.5091,153.0301,16,0.0.0.0,10.139.130.79,3,1
2013-11-13 08:52:46.522,508,15.24,52.37603,4.918281,2.216324,0,-1,15.66453,10,1384329118,-0.07357788,-0.4293365,-0.9099274,26.59447,-33.38873,-16.14771,153.0367,152.5578,16,0.0.0.0,10.139.130.79,3,1
2013-11-13 08:52:46.608,509,15.27,52.37603,4.918281,2.216324,0,-1,15.66453,10,1384329118,-0.0753479,-0.4370422,-0.9011536,25.65833,-33.44356,-16.77939,152.6207,152.1417,16,0.0.0.0,10.139.130.79,3,1
2013-11-13 08:52:46.748,510,15.3,52.37603,4.918281,2.216324,0,-1,15.66453,10,1384329118,-0.07920837,-0.434021,-0.9002228,25.98873,-33.11455,-17.4685,151.2725,150.7935,16,0.0.0.0,10.139.130.79,3,1
2013-11-13 08:52:46.830,511,15.33,52.37603,4.918281,2.216324,0,-1,15.66453,10,1384329118,-0.09217834,-0.4485016,-0.9080048,26.26406,-32.51138,-17.18137,150.7762,150.2972,16,0.0.0.0,10.139.130.79,3,1
2013-11-13 08:52:46.938,512,15.36,52.37603,4.918281,2.216324,0,-1,15.66453,10,1384329118,-0.08821106,-0.4553986,-0.9070129,26.8698,-31.46953,-15.97542,149.9993,149.5204,16,0.0.0.0,10.139.130.79,3,1
2013-11-13 08:52:47.032,513,15.39,52.37603,4.918281,2.216324,0,-1,15.66453,10,1384329118,-0.08538818,-0.454483,-0.9070129,27.3654,-31.0857,-15.22889,151.1805,150.7016,16,0.0.0.0,10.139.130.79,3,1
2013-11-13 08:52:47.111,514,15.42,52.37603,4.918281,2.216324,0,-1,15.66453,10,1384329118,-0.08538818,-0.454483,-0.9070129,26.3742,-31.19536,-15.4586,221.6181,221.1391,21,0.0.0.0,10.139.130.79,3,1
2013-11-13 08:52:47.220,515,15.45,52.37603,4.918281,2.216324,0,-1,15.66453,10,1384329118,-0.1005096,-0.4609222,-0.89534,27.31034,-30.15351,-13.90809,233.6657,233.1867,20,0.0.0.0,10.139.130.79,3,1
2013-11-13 08:52:47.297,516,15.48,52.37603,4.918281,3.07346,0,-1,15.51039,10,1384329119,-0.1014404,-0.460968,-0.9011993,28.24648,-30.09868,-12.70215,233.4791,233.0001,20,0.0.0.0,10.139.130.79,3,1
2013-11-13 08:52:47.496,517,15.51,52.37603,4.918281,3.07346,0,-1,15.51039,10,1384329119,-0.08262634,-0.448761,-0.9147949,28.79715,-30.09868,-11.43877,233.0297,232.5508,25,0.0.0.0,10.139.130.79,3,1
2013-11-13 08:52:47.595,518,15.54,52.37603,4.918281,3.07346,0,-1,15.51039,10,1384329119,-0.0763092,-0.4378967,-0.8894806,27.80594,-29.55034,-12.81699,233.0255,232.5465,25,0.0.0.0,10.139.130.79,1,1
2013-11-13 08:52:47.714,519,15.57,52.37603,4.918281,3.07346,0,-1,15.51039,10,1384329119,-0.0763092,-0.4378967,-0.8894806,28.52181,-29.71484,-12.41502,232.4014,231.9225,25,0.0.0.0,10.139.130.79,1,1
2013-11-13 08:52:47.824,520,15.6,52.37603,4.918281,3.07346,0,-1,15.51039,10,1384329119,-0.0877533,-0.4395447,-0.8817444,28.08127,-30.04385,-12.30016,230.2547,229.7757,25,0.0.0.0,10.139.130.79,1,1
2013-11-13 08:52:47.895,521,15.63,52.37603,4.918281,3.07346,0,-1,15.51039,10,1384329119,-0.09042358,-0.4407349,-0.9090118,26.7046,-31.19537,-13.96552,231.1945,230.7155,25,0.0.0.0,10.139.130.79,1,1
2013-11-13 08:52:48.003,522,15.66,52.37603,4.918281,3.07346,0,-1,15.51039,10,1384329119,-0.09329224,-0.4416199,-0.9060669,25.49313,-30.75669,-10.40511,227.0939,226.6149,25,0.0.0.0,10.139.130.79,1,1
2013-11-13 08:52:48.078,523,15.69,52.37603,4.918281,3.07346,0,-1,15.51039,10,1384329119,-0.07234192,-0.4411011,-0.91185,25.16273,-32.18238,-10.40511,228.2369,227.758,25,0.0.0.0,10.139.130.79,1,1
2013-11-13 08:52:48.198,524,15.72,52.37603,4.918281,3.07346,0,-1,15.51039,10,1384329119,-0.07891846,-0.443924,-0.9147949,25.21779,-31.79854,-10.92194,228.1049,227.626,25,0.0.0.0,10.139.130.79,1,1
2013-11-13 08:52:48.280,525,15.75,52.37603,4.918281,3.07346,0,-1,15.51039,10,1384329119,-0.07891846,-0.443924,-0.9147949,23.78605,-29.93418,-11.0368,228.2918,227.8129,25,0.0.0.0,10.139.130.79,1,1
2013-11-13 08:52:48.496,526,15.78,52.37603,4.918281,3.07346,0,-1,15.51039,10,1384329119,-0.0940094,-0.4476166,-0.9216614,24.55699,-28.94716,-11.84076,229.2313,228.7524,25,0.0.0.0,10.139.130.79,1,1
2013-11-13 08:52:48.580,527,15.81,52.37603,4.918281,3.07346,0,-1,15.51039,10,1384329119,-0.0958252,-0.4514771,-0.9216614,27.69581,-27.35698,-16.83681,237.3677,236.8887,25,0.0.0.0,10.139.130.79,1,1
2013-11-13 08:52:48.702,528,15.84,52.37603,4.918281,0.4263229,0,-1,15.65378,10,1384329120,-0.09028625,-0.4466095,-0.9089966,28.85221,-27.30214,-15.86057,236.7613,236.2824,25,0.0.0.0,10.139.130.79,1,1
2013-11-13 08:52:48.785,529,15.87,52.37603,4.918281,0.4263229,0,-1,15.65378,10,1384329120,-0.08665466,-0.443573,-0.891449,27.47554,-28.89233,-12.12789,233.0312,232.5523,25,0.0.0.0,10.139.130.79,1,1
2013-11-13 08:52:48.882,530,15.9,52.37603,4.918281,0.4263229,0,-1,15.65378,10,1384329120,-0.08854675,-0.4435577,-0.8943787,28.41168,-30.26318,-11.38135,232.3515,231.8726,25,0.0.0.0,10.139.130.79,1,1
2013-11-13 08:52:48.962,531,15.93,52.37603,4.918281,0.4263229,0,-1,15.65378,10,1384329120,-0.0912323,-0.4475708,-0.9109344,27.91607,-31.0857,-13.50611,234.7734,234.2945,25,0.0.0.0,10.139.130.79,1,1
2013-11-13 08:52:49.069,532,15.96,52.37603,4.918281,0.4263229,0,-1,15.65378,10,1384329120,-0.08456421,-0.4486389,-0.9060211,29.40288,-29.93418,-12.41502,232.2322,231.7533,25,0.0.0.0,10.139.130.79,1,1
2013-11-13 08:52:49.169,533,15.99,52.37603,4.918281,0.4263229,0,-1,15.65378,10,1384329120,-0.08360291,-0.4487,-0.9109039,29.18262,-31.46953,-14.02294,234.7946,234.3156,25,0.0.0.0,10.139.130.79,1,1
2013-11-13 08:52:49.260,534,16.02,52.37603,4.918281,0.4263229,0,-1,15.65378,10,1384329120,-0.08360291,-0.4487,-0.9109039,31.49543,-32.45655,-16.54968,237.5984,237.1195,25,0.0.0.0,10.139.130.79,1,1
2013-11-13 08:52:49.475,535,16.05,52.37603,4.918281,0.4263229,0,-1,15.65378,10,1384329120,-0.078125,-0.4389954,-0.9070282,32.3765,-32.78555,-17.58335,239.0182,238.5393,25,0.0.0.0,10.139.130.79,1,1
2013-11-13 08:52:49.779,536,16.08,52.37603,4.918281,0.4263229,0,-1,15.65378,10,1384329120,-0.07344055,-0.4342957,-0.9157562,33.64304,-32.29205,-19.019,238.8974,238.4184,25,0.0.0.0,10.139.130.79,1,1
2013-11-13 08:52:49.865,537,16.11,52.37603,4.918281,0.4263229,0,-1,15.65378,10,1384329120,-0.08280945,-0.4418793,-0.9109192,34.46905,-33.11456,-20.5695,241.7309,241.252,25,0.0.0.0,10.139.130.79,1,1
2013-11-13 08:52:49.975,538,16.14,52.37603,4.918281,0.4263229,0,-1,15.65378,10,1384329120,-0.08770752,-0.4368134,-0.9031525,34.96465,-32.84039,-19.2487,240.5006,240.0217,25,0.0.0.0,10.139.130.79,1,1
2013-11-13 08:52:50.048,539,16.17,52.37603,4.918281,0.4263229,0,-1,15.65378,10,1384329120,-0.08468628,-0.447464,-0.884613,34.35891,-32.78555,-18.84672,240.5325,240.0535,25,0.0.0.0,10.139.130.79,1,1
2013-11-13 08:52:50.145,540,16.2,52.37603,4.918281,0.4263229,0,-1,15.65378,10,1384329120,-0.08662415,-0.4445496,-0.8904724,34.85452,-32.73072,-19.59326,240.3513,239.8724,25,0.0.0.0,10.139.130.79,1,1
2013-11-13 08:52:50.231,541,16.23,52.37603,4.918281,0,0,-1,15.69144,10,1384329121,-0.09144592,-0.4415283,-0.8934174,34.19371,-33.27906,-20.05267,241.0218,240.5429,25,0.0.0.0,10.139.130.79,1,1
2013-11-13 08:52:50.446,542,16.26,52.37603,4.918281,0,0,-1,15.69144,10,1384329121,-0.08636475,-0.4506683,-0.9187012,34.68932,-33.22422,-20.45465,241.4167,240.9378,25,0.0.0.0,10.139.130.79,1,1
2013-11-13 08:52:50.529,543,16.29,52.37603,4.918281,0,0,-1,15.69144,10,1384329121,-0.08169556,-0.4477844,-0.9138031,35.23998,-32.78555,-19.99524,240.9312,240.4523,25,0.0.0.0,10.139.130.79,1,1
2013-11-13 08:52:50.572,544,16.32,52.37603,4.918281,0,0,-1,15.69144,10,1384329121,-0.08360291,-0.449585,-0.9021301,34.41398,-33.27906,-19.59326,240.308,239.8291,25,0.0.0.0,10.139.130.79,1,1
2013-11-13 08:52:50.665,545,16.35,52.37603,4.918281,0,0,-1,15.69144,10,1384329121,-0.08360291,-0.449585,-0.9021301,34.30385,-32.95006,-19.2487,239.8797,239.4008,25,0.0.0.0,10.139.130.79,1,1
2013-11-13 08:52:50.766,546,16.38,52.37603,4.918281,0,0,-1,15.69144,10,1384329121,-0.07791138,-0.4478302,-0.9089355,34.13864,-32.78555,-19.07642,239.2341,238.7552,25,0.0.0.0,10.139.130.79,1,1
2013-11-13 08:52:50.886,547,16.41,52.37603,4.918281,0,0,-1,15.69144,10,1384329121,-0.07791138,-0.4478302,-0.9089355,32.43156,-34.04673,-19.47841,239.8114,239.3325,25,0.0.0.0,10.139.130.79,1,1
2013-11-13 08:52:50.958,548,16.44,52.37603,4.918281,0,0,-1,15.69144,10,1384329121,-0.09112549,-0.4514771,-0.9118958,32.43156,-33.05972,-19.2487,239.4185,238.9395,25,0.0.0.0,10.139.130.79,1,1
2013-11-13 08:52:51.071,549,16.47,52.37603,4.918281,0,0,-1,15.69144,10,1384329121,-0.08737183,-0.4486847,-0.9187012,32.43156,-32.29205,-19.2487,239.9831,239.5042,25,0.0.0.0,10.139.130.79,1,1
2013-11-13 08:52:51.165,550,16.5,52.37603,4.918281,0,0,-1,15.69144,10,1384329121,-0.07998657,-0.4418182,-0.8992004,33.69811,-32.12754,-19.30613,240.0214,239.5424,25,0.0.0.0,10.139.130.79,1,1
2013-11-13 08:52:51.275,551,16.53,52.37603,4.918281,0,0,-1,15.69144,10,1384329121,-0.07458496,-0.4348297,-0.8690491,34.57918,-32.23721,-19.99524,240.9106,240.4317,25,0.0.0.0,10.139.130.79,1,1
2013-11-13 08:52:51.465,552,16.56,52.37603,4.918281,0.9635162,0,-1,16.02238,10,1384329122,-0.08300781,-0.4405518,-0.8719788,34.90958,-32.01788,-20.22495,241.3729,240.894,25,0.0.0.0,10.139.130.79,1,1
2013-11-13 08:52:51.589,553,16.59,52.37603,4.918281,0.9635162,0,-1,16.02238,10,1384329122,-0.09214783,-0.4503937,-0.9021606,35.46025,-32.23721,-20.68435,242.1008,241.6219,25,0.0.0.0,10.139.130.79,1,1
2013-11-13 08:52:51.701,554,16.62,52.37603,4.918281,0.9635162,0,-1,16.02238,10,1384329122,-0.07797241,-0.4448853,-0.9089508,36.67173,-31.46953,-19.88039,241.3078,240.8289,25,0.0.0.0,10.139.130.79,1,1
2013-11-13 08:52:51.796,555,16.65,52.37603,4.918281,0.9635162,0,-1,16.02238,10,1384329122,-0.08177185,-0.4532471,-0.8690186,36.34132,-31.79854,-19.88039,241.8897,241.4108,25,0.0.0.0,10.139.130.79,1,1
2013-11-13 08:52:51.895,556,16.68,52.37603,4.918281,0.9635162,0,-1,16.02238,10,1384329122,-0.08177185,-0.4532471,-0.8690186,36.61666,-31.85337,-20.74178,243.6698,243.1908,25,0.0.0.0,10.139.130.79,1,1
2013-11-13 08:52:51.964,557,16.71,52.37603,4.918281,0.9635162,0,-1,16.02238,10,1384329122,-0.1504517,-0.4627686,-0.7757874,37.16733,-31.4147,-20.62693,243.4819,243.0029,25,0.0.0.0,10.139.130.79,1,1
2013-11-13 08:52:52.117,558,16.74,52.37603,4.918281,0.9635162,0,-1,16.02238,10,1384329122,-0.1504517,-0.4627686,-0.7757874,36.17612,-31.74371,-20.74178,243.156,242.6771,25,0.0.0.0,10.139.130.79,1,1
2013-11-13 08:52:52.210,559,16.77,52.37603,4.918281,0.9635162,0,-1,16.02238,10,1384329122,-0.2370758,-0.4619141,-0.7634735,36.83693,-31.96304,-20.28237,242.5224,242.0435,25,0.0.0.0,10.139.130.79,1,1
2013-11-13 08:52:52.439,560,16.8,52.37603,4.918281,0.9635162,0,-1,16.02238,10,1384329122,-0.146225,-0.5075989,-0.6442261,36.94706,-30.64702,-19.019,241.7289,241.25,25,0.0.0.0,10.139.130.79,1,1
2013-11-13 08:52:52.512,561,16.83,52.37603,4.918281,0.9635162,0,-1,16.02238,10,1384329122,-0.146225,-0.5075989,-0.6442261,36.23119,-31.35987,-20.11009,243.5518,243.0729,25,0.0.0.0,10.139.130.79,1,1
2013-11-13 08:52:52.614,562,16.86,52.37603,4.918281,0.9635162,0,-1,16.02238,10,1384329122,-0.399826,-0.4847565,-0.4038391,37.60786,-30.86636,-20.51208,244.2659,243.787,25,0.0.0.0,10.139.130.79,1,1
2013-11-13 08:52:52.743,563,16.89,52.37603,4.918281,0.9635162,0,-1,16.02238,10,1384329122,-0.399826,-0.4847565,-0.4038391,37.3876,-31.7437,-21.43089,244.9594,244.4805,25,0.0.0.0,10.139.130.79,1,1
2013-11-13 08:52:52.855,564,16.92,52.37603,4.918281,0.9635162,0,-1,16.02238,10,1384329122,-0.4394531,-0.4257812,-0.3447571,39.14974,-30.97603,-20.97148,245.6529,245.174,25,0.0.0.0,10.139.130.79,1,1
2013-11-13 08:52:52.951,565,16.95,52.37603,4.918281,0.9635162,0,-1,16.02238,10,1384329122,-0.3738403,-0.4064331,-0.4389801,39.14974,-30.31802,-20.74178,246.6997,246.2208,25,0.0.0.0,10.139.130.79,1,1
2013-11-13 08:52:53.048,566,16.98,52.37603,4.918281,0.9635162,0,-1,16.02238,10,1384329122,-0.1942139,-0.3676147,-0.6136322,37.66293,-29.93418,-20.91405,246.5525,246.0736,25,0.0.0.0,10.139.130.79,1,1
2013-11-13 08:52:53.130,567,17.01,52.37603,4.918281,0.9635162,0,-1,16.02238,10,1384329122,-0.1312561,-0.3158875,-0.7040558,38.15854,-30.31802,-20.28237,245.5461,245.0672,25,0.0.0.0,10.139.130.79,1,1
2013-11-13 08:52:53.250,568,17.04,52.37603,4.918281,0.9635162,0,-1,16.02238,10,1384329122,-0.1126251,-0.180069,-0.6624908,37.66293,-31.14053,-18.84672,244.3256,243.8467,25,0.0.0.0,10.139.130.79,1,1
2013-11-13 08:52:53.446,569,17.07,52.37603,4.918281,2.164452,0,-1,16.34325,10,1384329123,-0.1333466,-0.07269287,-0.6151276,37.16733,-31.08569,-19.82296,244.5334,244.0545,25,0.0.0.0,10.139.130.79,1,1
2013-11-13 08:52:53.535,570,17.1,52.37603,4.918281,2.164452,0,-1,16.34325,10,1384329123,-0.2145844,0.02313232,-1.002213,36.34132,-30.81153,-19.88039,244.6152,244.1362,25,0.0.0.0,10.139.130.79,1,1
2013-11-13 08:52:53.633,571,17.13,52.37603,4.918281,2.164452,0,-1,16.34325,10,1384329123,-0.08354187,0.09861755,-1.121643,36.34132,-29.60517,-19.42098,244.6823,244.2033,25,0.0.0.0,10.139.130.79,1,1
2013-11-13 08:52:53.748,572,17.16,52.37603,4.918281,2.164452,0,-1,16.34325,10,1384329123,-0.08354187,0.09861755,-1.121643,35.95586,-29.66001,-19.2487,243.9847,243.5058,25,0.0.0.0,10.139.130.79,1,1
2013-11-13 08:52:53.826,573,17.19,52.37603,4.918281,2.164452,0,-1,16.34325,10,1384329123,0.3012695,0.2141266,-0.7933197,36.23119,-29.05683,-18.84672,243.2348,242.7559,25,0.0.0.0,10.139.130.79,1,1
2013-11-13 08:52:53.907,574,17.22,52.37603,4.918281,2.164452,0,-1,16.34325,10,1384329123,0.3012695,0.2141266,-0.7933197,35.68052,-28.72783,-18.38731,242.2606,241.7816,25,0.0.0.0,10.139.130.79,1,1
2013-11-13 08:52:54.016,575,17.25,52.37603,4.918281,2.164452,0,-1,16.34325,10,1384329123,0.2782135,0.192688,-1.055237,36.06599,-29.55034,-18.7893,242.3487,241.8698,25,0.0.0.0,10.139.130.79,1,1
2013-11-13 08:52:54.099,576,17.28,52.37603,4.918281,2.164452,0,-1,16.34325,10,1384329123,-0.03709412,0.1401215,-1.2939,36.39639,-29.22134,-18.7893,242.8584,242.3795,25,0.0.0.0,10.139.130.79,1,1
2013-11-13 08:52:54.220,577,17.31,52.37603,4.918281,2.164452,0,-1,16.34325,10,1384329123,-0.2727203,0.2786407,-1.19101,35.90079,-29.05683,-18.84672,242.3965,241.9175,25,0.0.0.0,10.139.130.79,1,1
2013-11-13 08:52:54.295,578,17.34,52.37603,4.918281,2.758011,0,-1,16.5829,10,1384329124,-0.07815552,0.2896423,-0.9497986,36.01092,-28.39882,-20.11009,243.1536,242.6747,25,0.0.0.0,10.139.130.79,1,1
2013-11-13 08:52:54.527,579,17.37,52.37603,4.918281,2.758011,0,-1,16.5829,10,1384329124,-0.0222168,0.2936554,-1.142349,35.23998,-28.28915,-22.63683,245.3536,244.8747,25,0.0.0.0,10.139.130.79,1,1
2013-11-13 08:52:54.612,580,17.4,52.37603,4.918281,2.758011,0,-1,16.5829,10,1384329124,-0.0222168,0.2936554,-1.142349,35.57039,-28.39882,-23.6705,245.8143,245.3353,25,0.0.0.0,10.139.130.79,1,1
2013-11-13 08:52:54.729,581,17.43,52.37603,4.918281,2.758011,0,-1,16.5829,10,1384329124,-0.1984253,0.4621124,-1.708176,35.73559,-28.56332,-23.38337,246.0393,245.5604,25,0.0.0.0,10.139.130.79,1,1
2013-11-13 08:52:54.814,582,17.46,52.37603,4.918281,2.758011,0,-1,16.5829,10,1384329124,-0.08644104,0.5724335,-1.363373,36.50652,-28.78266,-22.34971,244.7397,244.2608,25,0.0.0.0,10.139.130.79,1,1
2013-11-13 08:52:54.934,583,17.49,52.37603,4.918281,2.758011,0,-1,16.5829,10,1384329124,-0.0191803,0.5828552,-1.360229,37.11226,-29.60517,-21.60317,243.0285,242.5496,25,0.0.0.0,10.139.130.79,1,1
2013-11-13 08:52:55.009,584,17.52,52.37603,4.918281,2.758011,0,-1,16.5829,10,1384329124,-0.0191803,0.5828552,-1.360229,36.17612,-29.44067,-20.97148,243.2029,242.724,25,0.0.0.0,10.139.130.79,1,1
2013-11-13 08:52:55.114,585,17.55,52.37603,4.918281,2.758011,0,-1,16.5829,10,1384329124,0.0982666,0.4675598,-1.531784,35.79065,-29.27617,-20.7992,241.8551,241.3761,25,0.0.0.0,10.139.130.79,1,1
2013-11-13 08:52:55.213,586,17.58,52.37603,4.918281,2.758011,0,-1,16.5829,10,1384329124,0.07707214,0.3480225,-1.504288,34.74438,-28.45366,-21.43089,243.6272,243.1482,25,0.0.0.0,10.139.130.79,1,1
2013-11-13 08:52:55.375,587,17.61,52.37603,4.918281,2.758011,0,-1,16.5829,10,1384329124,0.1535187,0.267334,-1.396698,33.91838,-28.8375,-23.09624,245.1882,244.7093,25,0.0.0.0,10.139.130.79,1,1
2013-11-13 08:52:55.513,588,17.64,52.37603,4.918281,2.758011,0,-1,16.5829,10,1384329124,0.04704285,0.2206116,-0.9578857,34.74438,-28.89233,-23.26852,245.4228,244.9439,25,0.0.0.0,10.139.130.79,1,1
2013-11-13 08:52:55.607,589,17.67,52.37603,4.918281,2.758011,0,-1,16.5829,10,1384329124,0.04704285,0.2206116,-0.9578857,35.12985,-28.50849,-23.2111,244.2454,243.7664,25,0.0.0.0,10.139.130.79,1,1
2013-11-13 08:52:55.736,590,17.7,52.37603,4.918281,2.758011,0,-1,16.5829,10,1384329124,-0.4151306,0.2247314,-0.7601318,35.62545,-28.56332,-23.03882,244.6638,244.1848,25,0.0.0.0,10.139.130.79,1,1
2013-11-13 08:52:55.839,591,17.73,52.37603,4.918281,3.502083,0,-1,16.72843,10,1384329125,-0.5241089,0.2167358,-0.8053284,36.50652,-28.23432,-22.23486,243.8056,243.3267,25,0.0.0.0,10.139.130.79,1,1
2013-11-13 08:52:55.937,592,17.76,52.37603,4.918281,3.502083,0,-1,16.72843,10,1384329125,-0.3460999,0.1952972,-0.9486542,36.94706,-28.23432,-21.31604,243.3832,242.9043,25,0.0.0.0,10.139.130.79,1,1
2013-11-13 08:52:56.049,593,17.79,52.37603,4.918281,3.502083,0,-1,16.72843,10,1384329125,-0.2004089,0.2183685,-1.103928,36.61666,-28.56332,-21.66059,246.065,245.5861,25,0.0.0.0,10.139.130.79,1,1
2013-11-13 08:52:56.130,594,17.82,52.37603,4.918281,3.502083,0,-1,16.72843,10,1384329125,-0.06596375,0.2281494,-1.238754,35.46025,-29.27617,-22.63683,245.1057,244.6267,25,0.0.0.0,10.139.130.79,1,1
2013-11-13 08:52:56.230,595,17.85,52.37603,4.918281,3.502083,0,-1,16.72843,10,1384329125,-0.1557312,0.2736511,-1.378448,36.06599,-28.78266,-23.15366,246.1008,245.6219,25,0.0.0.0,10.139.130.79,1,1
2013-11-13 08:52:56.366,596,17.88,52.37603,4.918281,3.502083,0,-1,16.72843,10,1384329125,-0.3268738,0.3029175,-1.108536,36.39639,-28.23432,-22.80911,245.6166,245.1377,25,0.0.0.0,10.139.130.79,1,1
2013-11-13 08:52:56.512,597,17.91,52.37603,4.918281,3.502083,0,-1,16.72843,10,1384329125,-0.3552551,0.3321075,-1.07756,35.68052,-29.27617,-21.83287,243.7415,243.2626,25,0.0.0.0,10.139.130.79,1,1
2013-11-13 08:52:56.610,598,17.94,52.37603,4.918281,3.502083,0,-1,16.72843,10,1384329125,-0.3882446,0.3386841,-0.9618683,35.46025,-29.05683,-19.76554,241.5683,241.0893,25,0.0.0.0,10.139.130.79,1,1
2013-11-13 08:52:56.725,599,17.97,52.37603,4.918281,3.502083,0,-1,16.72843,10,1384329125,-0.5211182,0.3350067,-0.7958679,33.53291,-28.89233,-19.019,241.5441,241.0652,25,0.0.0.0,10.139.130.79,1,1
2013-11-13 08:52:56.842,600,18,52.37603,4.918281,3.286949,0,-1,16.83758,10,1384329126,-0.621048,0.2950439,-0.7883911,34.24878,-28.06981,-18.38731,240.5478,240.0689,25,0.0.0.0,10.139.130.79,1,1
2013-11-13 08:52:56.941,601,18.03,52.37603,4.918281,3.286949,0,-1,16.83758,10,1384329126,-0.621048,0.2950439,-0.7883911,34.24878,-28.28915,-18.73187,240.5337,240.0548,25,0.0.0.0,10.139.130.79,1,1
2013-11-13 08:52:57.008,602,18.06,52.37603,4.918281,3.286949,0,-1,16.83758,10,1384329126,-0.6331635,0.3097534,-0.9169922,33.75317,-28.34399,-18.67445,240.6089,240.13,25,0.0.0.0,10.139.130.79,1,1
2013-11-13 08:52:57.109,603,18.09,52.37603,4.918281,3.286949,0,-1,16.83758,10,1384329126,-0.5023651,0.3735199,-0.9273376,32.7069,-27.0828,-17.4685,237.3197,236.8407,25,0.0.0.0,10.139.130.79,1,1
2013-11-13 08:52:57.192,604,18.12,52.37603,4.918281,3.286949,0,-1,16.83758,10,1384329126,-0.5211945,0.4109039,-0.9421234,32.5417,-25.93128,-17.18137,236.067,235.5881,25,0.0.0.0,10.139.130.79,1,1
2013-11-13 08:52:57.289,605,18.15,52.37603,4.918281,3.286949,0,-1,16.83758,10,1384329126,-0.5211945,0.4109039,-0.9421234,32.2113,-25.27327,-17.18137,235.5388,235.0599,25,0.0.0.0,10.139.130.79,1,1
2013-11-13 08:52:57.497,606,18.18,52.37603,4.918281,3.286949,0,-1,16.83758,10,1384329126,-0.6197662,0.500824,-0.8317566,31.66063,-24.17659,-16.14771,233.3804,232.9015,25,0.0.0.0,10.139.130.79,1,1
2013-11-13 08:52:57.579,607,18.21,52.37603,4.918281,3.286949,0,-1,16.83758,10,1384329126,-0.697937,0.5708618,-0.7163849,28.63194,-24.23142,-15.86057,234.7393,234.2603,25,0.0.0.0,10.139.130.79,1,1
2013-11-13 08:52:57.697,608,18.24,52.37603,4.918281,3.286949,0,-1,16.83758,10,1384329126,-0.6564331,0.553009,-0.7619324,27.3654,-22.53157,-16.72196,235.4993,235.0204,25,0.0.0.0,10.139.130.79,1,1
2013-11-13 08:52:57.814,609,18.27,52.37603,4.918281,3.286949,0,-1,16.83758,10,1384329126,-0.6230774,0.5960999,-0.7862396,28.13634,-21.21555,-16.60711,234.1051,233.6262,25,0.0.0.0,10.139.130.79,1,1
2013-11-13 08:52:57.893,610,18.3,52.37603,4.918281,3.286949,0,-1,16.83758,10,1384329126,-0.6054382,0.6040649,-0.7316742,27.14514,-19.89953,-15.68829,232.1794,231.7005,25,0.0.0.0,10.139.130.79,1,1
2013-11-13 08:52:57.990,611,18.33,52.37603,4.918281,3.286949,0,-1,16.83758,10,1384329126,-0.5503235,0.5937347,-0.6720581,26.42927,-18.41901,-15.74572,231.1869,230.7079,25,0.0.0.0,10.139.130.79,1,1
2013-11-13 08:52:58.094,612,18.36,52.37603,4.918281,3.286949,0,-1,16.83758,10,1384329126,-0.5503235,0.5937347,-0.6720581,24.83232,-18.36417,-15.918,231.4871,231.0082,25,0.0.0.0,10.139.130.79,1,1
2013-11-13 08:52:58.190,613,18.39,52.37603,4.918281,4.229809,0,-1,16.9687,10,1384329127,-0.5342712,0.60112,-0.6836853,25.49313,-17.37716,-15.80315,230.8253,230.3463,25,0.0.0.0,10.139.130.79,1,1
2013-11-13 08:52:58.297,614,18.42,52.37603,4.918281,4.229809,0,-1,16.9687,10,1384329127,-0.6051636,0.6091309,-0.8193359,25.43806,-16.66432,-15.17146,230.4907,230.0118,25,0.0.0.0,10.139.130.79,1,1
2013-11-13 08:52:58.518,615,18.45,52.37603,4.918281,4.229809,0,-1,16.9687,10,1384329127,-0.6271362,0.6210175,-0.8515625,27.42047,-16.99332,-16.89424,232.955,232.4761,25,0.0.0.0,10.139.130.79,1,1
2013-11-13 08:52:58.618,616,18.48,52.37603,4.918281,4.229809,0,-1,16.9687,10,1384329127,-0.5960693,0.6078796,-0.7189941,28.02621,-18.36417,-16.72196,232.7082,232.2293,25,0.0.0.0,10.139.130.79,1,1
2013-11-13 08:52:58.733,617,18.51,52.37603,4.918281,4.229809,0,-1,16.9687,10,1384329127,-0.5788727,0.4963074,-0.8092041,28.68701,-17.70616,-15.4586,232.2137,231.7348,25,0.0.0.0,10.139.130.79,1,1
2013-11-13 08:52:58.802,618,18.54,52.37603,4.918281,4.229809,0,-1,16.9687,10,1384329127,-0.5788727,0.4963074,-0.8092041,27.25527,-17.81583,-15.68829,233.0231,232.5442,25,0.0.0.0,10.139.130.79,1,1
2013-11-13 08:52:58.918,619,18.57,52.37603,4.918281,4.229809,0,-1,16.9687,10,1384329127,-0.5976715,0.4392395,-0.7857361,25.54819,-16.77398,-14.94176,231.716,231.237,25,0.0.0.0,10.139.130.79,1,1
2013-11-13 08:52:59.018,620,18.6,52.37603,4.918281,4.229809,0,-1,16.9687,10,1384329127,-0.6128082,0.3945312,-0.7924957,25.38299,-15.29346,-15.4586,232.3987,231.9198,25,0.0.0.0,10.139.130.79,1,1
2013-11-13 08:52:59.113,621,18.63,52.37603,4.918281,4.229809,0,-1,16.9687,10,1384329127,-0.5673676,0.3314362,-0.6441803,24.33672,-16.11597,-16.20513,233.7086,233.2297,25,0.0.0.0,10.139.130.79,1,1
2013-11-13 08:52:59.194,622,18.66,52.37603,4.918281,4.229809,0,-1,16.9687,10,1384329127,-0.5875549,0.2967987,-0.6285858,25.27286,-16.28048,-15.4586,232.808,232.3291,25,0.0.0.0,10.139.130.79,1,1
2013-11-13 08:52:59.293,623,18.69,52.37603,4.918281,4.229809,0,-1,16.9687,10,1384329127,-0.5875549,0.2967987,-0.6285858,26.09886,-15.45796,-15.05661,232.8161,232.3371,25,0.0.0.0,10.139.130.79,1,1
2013-11-13 08:52:59.494,624,18.72,52.37603,4.918281,4.048069,0,-1,17.09104,10,1384329128,-0.6107635,0.2381897,-0.6742859,26.59447,-15.62246,-16.14771,234.3278,233.8489,25,0.0.0.0,10.139.130.79,1,1
2013-11-13 08:52:59.593,625,18.75,52.37603,4.918281,4.048069,0,-1,17.09104,10,1384329128,-0.6506348,0.1725006,-0.7852478,25.8786,-16.99332,-17.00909,235.1702,234.6913,25,0.0.0.0,10.139.130.79,1,1
2013-11-13 08:52:59.705,626,18.78,52.37603,4.918281,4.048069,0,-1,17.09104,10,1384329128,-0.5977478,0.1367493,-0.7333527,25.76846,-16.66431,-16.09028,233.9659,233.487,25,0.0.0.0,10.139.130.79,1,1
