time,timestamp,recordtime,lat,long,alt,speed,course,verticalAccuracy,horizontalAccuracy,locTimeStamp,accelerationX,accelerationY,accelerationZ,HeadingX,HeadingY,HeadingZ,TrueHeading,MagneticHeading,HeadingAccuracy,en0,pdp_ip0,DeviceOrientation,Event
2013-11-11 16:46:18.095,1,0.1,52.17015,4.457851,0,0,-1,14.37628,10,1384184765,0.01663208,-0.4215088,-0.9261475,-4.913322,1.702732,-45.48874,24.01816,23.67513,25,0.0.0.0,10.139.104.221,5,0
2013-11-11 16:46:18.247,2,0.2,52.17015,4.457851,0,0,-1,14.37628,10,1384184765,0.01663208,-0.4215088,-0.9261475,-5.023479,0.3864846,-44.22546,23.79817,23.45514,25,0.0.0.0,10.139.104.221,5,0
2013-11-11 16:46:18.401,3,0.3,52.17015,4.457851,0,0,-1,14.37628,10,1384184765,0.001434326,-0.4202576,-0.9291534,-4.968403,0.8800759,-44.05319,23.66716,23.32413,25,0.0.0.0,10.139.104.221,5,0
2013-11-11 16:46:18.614,4,0.4,52.17015,4.457851,0,0,-1,14.37628,10,1384184765,0.01464844,-0.4260101,-0.8881836,-3.976997,0.2219491,-45.20163,15.09375,14.75072,25,0.0.0.0,10.139.104.221,5,0
2013-11-11 16:46:18.743,5,0.5,52.17015,4.457851,0,0,-1,14.37628,10,1384184765,-0.002563477,-0.4151306,-0.910675,-4.472698,0.6058542,-44.68483,14.58881,14.24578,25,0.0.0.0,10.139.104.221,5,0
2013-11-11 16:46:18.871,6,0.6,52.17015,4.457851,0,0,-1,14.37628,10,1384184765,0.007781982,-0.4104614,-0.9125824,-5.023479,0.6058542,-43.53639,16.69671,16.35368,25,0.0.0.0,10.139.104.221,5,0
2013-11-11 16:46:19.092,7,0.7,52.17015,4.457851,0,0,-1,14.37628,10,1384184765,0.009872437,-0.4164429,-0.9213257,-5.133636,-0.600701,-44.45515,15.32594,14.98291,25,0.0.0.0,10.139.104.221,1,0
2013-11-11 16:46:19.273,8,0.8,52.17015,4.457851,0,0,-1,14.37628,10,1384184765,0.01280212,-0.4176178,-0.9388275,-4.693012,-0.4910148,-46.63718,11.59896,11.25593,25,0.0.0.0,10.139.104.221,1,0
2013-11-11 16:46:19.355,9,0.9,52.17015,4.457851,0,0,-1,14.37628,10,1384184765,0.02246094,-0.4237213,-0.9416962,-3.59145,-0.2716392,-46.63718,9.448795,9.105766,25,0.0.0.0,10.139.104.221,1,0
2013-11-11 16:46:19.484,10,1,52.17015,4.457851,0,0,-1,14.37628,10,1384184765,0.02804565,-0.4198608,-0.9368286,-3.59145,-0.600701,-46.63718,9.971329,9.6283,25,0.0.0.0,10.139.104.221,1,0
2013-11-11 16:46:19.626,11,1.1,52.17015,4.457851,0,0,-1,14.48512,10,1384184766,0.02804565,-0.4198608,-0.9368286,-3.371136,-0.3813254,-45.48874,9.721044,9.378015,25,0.0.0.0,10.139.104.221,1,0
2013-11-11 16:46:19.739,12,1.2,52.17015,4.457851,0,0,-1,14.48512,10,1384184766,0.007843018,-0.4105682,-0.9252472,-3.59145,0.496174,-45.71843,8.951973,8.608944,25,0.0.0.0,10.139.104.221,1,0
2013-11-11 16:46:19.868,13,1.3,52.17015,4.457851,0,0,-1,14.48512,10,1384184766,0.007843018,-0.4105682,-0.9252472,-4.142231,1.812418,-45.60358,9.203327,8.860298,25,0.0.0.0,10.139.104.221,1,0
2013-11-11 16:46:20.196,14,1.4,52.17015,4.457851,0,0,-1,14.48512,10,1384184766,-0.004501343,-0.4112396,-0.9184723,-2.930511,2.251167,-44.79967,4.218546,3.875517,25,0.0.0.0,10.139.104.221,1,0
2013-11-11 16:46:20.432,15,1.5,52.17015,4.457851,0,0,-1,14.48512,10,1384184766,-0.0025177,-0.4142761,-0.9243011,-2.37973,1.922105,-45.14421,1.976524,1.633495,25,0.0.0.0,10.139.104.221,1,0
2013-11-11 16:46:20.592,16,1.6,52.17015,4.457851,0,0,-1,14.48512,10,1384184766,0.0003204346,-0.4152222,-0.9164886,-3.040668,1.922108,-45.60358,3.094836,2.751808,25,0.0.0.0,10.139.104.221,1,0
2013-11-11 16:46:21.116,17,1.7,52.17015,4.457851,0,0,-1,14.48512,10,1384184766,0.0003204346,-0.4161682,-0.9125977,-3.371136,-1.587893,-46.40749,0.2776601,359.9346,25,0.0.0.0,10.139.104.221,3,0
2013-11-11 16:46:21.367,18,1.8,52.17015,4.457851,0,0,-1,14.48512,10,1384184766,-0.006332397,-0.4151306,-0.9194489,-5.739494,-4.165548,-45.54616,5.559436,5.216407,25,0.0.0.0,10.139.104.221,3,0
2013-11-11 16:46:21.891,19,1.9,52.17015,4.457851,0,0,-1,14.48512,10,1384184766,-0.008300781,-0.4130859,-0.9145966,-5.188713,-4.49461,-46.6946,2.672764,2.329735,25,0.0.0.0,10.139.104.221,3,0
2013-11-11 16:46:22.404,20,2,52.17015,4.457851,0,0,-1,14.58661,10,1384184767,-0.003479004,-0.417984,-0.9067841,-6.951214,-5.591478,-45.54616,6.318447,5.975418,25,0.0.0.0,10.139.104.221,3,0
2013-11-11 16:46:22.615,21,2.1,52.17015,4.457851,0,0,-1,14.58661,10,1384184767,-0.005508423,-0.4111633,-0.9106903,-7.777386,-5.20758,-46.06296,6.050235,5.707206,25,0.0.0.0,10.139.104.221,3,0
2013-11-11 16:46:22.741,22,2.2,52.17015,4.457851,0,0,-1,14.58661,10,1384184767,-0.006286621,-0.417099,-0.921402,-8.27309,-5.372106,-45.31647,5.977579,5.634551,25,0.0.0.0,10.139.104.221,1,0
2013-11-11 16:46:22.849,23,2.3,52.17015,4.457851,0,0,-1,14.58661,10,1384184767,-0.006286621,-0.417099,-0.921402,-9.48481,-5.043044,-45.77585,7.162622,6.819593,25,0.0.0.0,10.139.104.221,1,0
2013-11-11 16:46:22.956,24,2.4,52.17015,4.457851,0,0,-1,14.58661,10,1384184767,-0.008163452,-0.418045,-0.9233398,-9.209419,-4.768828,-46.1778,7.101619,6.75859,25,0.0.0.0,10.139.104.221,1,0
2013-11-11 16:46:23.144,25,2.5,52.17015,4.457851,0,0,-1,14.58661,10,1384184767,-0.008102417,-0.4219055,-0.9174805,-9.374653,-3.61711,-46.12038,7.29415,6.951122,25,0.0.0.0,10.139.104.221,1,0
2013-11-11 16:46:23.314,26,2.6,52.17015,4.457851,0,0,-1,14.58661,10,1384184767,-0.00819397,-0.4179688,-0.9145813,-9.264496,-4.823671,-45.43132,7.425532,7.082504,25,0.0.0.0,10.139.104.221,1,0
2013-11-11 16:46:23.480,27,2.7,52.17015,4.457851,0,0,-1,14.58661,10,1384184767,-0.003448486,-0.4161835,-0.922348,-11.46762,-3.946172,-44.97194,13.38095,13.03792,25,0.0.0.0,10.139.104.221,1,0
2013-11-11 16:46:23.651,28,2.8,52.17015,4.457851,0,0,-1,14.73217,10,1384184768,0.0003814697,-0.416275,-0.9252625,-11.02699,-3.946172,-45.54616,13.33147,12.98844,25,0.0.0.0,10.139.104.221,1,0
2013-11-11 16:46:24.122,29,2.9,52.17015,4.457851,0,0,-1,14.73217,10,1384184768,-0.001525879,-0.4162445,-0.9242706,-10.58637,-3.946172,-45.20163,13.1621,12.81907,25,0.0.0.0,10.139.104.221,1,0
2013-11-11 16:46:24.411,30,3,52.17015,4.457851,0,0,-1,14.73217,10,1384184768,-0.008224487,-0.4141998,-0.9291992,-10.7516,-2.465386,-44.68483,13.32922,12.98619,25,0.0.0.0,10.139.104.221,1,0
2013-11-11 16:46:24.615,31,3.1,52.17015,4.457851,0,0,-1,14.73217,10,1384184768,-0.01037598,-0.4071045,-0.9068451,-9.48481,-1.971795,-45.43132,13.04409,12.70106,25,0.0.0.0,10.139.104.221,1,0
2013-11-11 16:46:24.795,32,3.2,52.17015,4.457851,0,0,-1,14.73217,10,1384184768,-0.007385254,-0.4111786,-0.917511,-9.539886,-2.026638,-45.94811,12.74786,12.40483,25,0.0.0.0,10.139.104.221,1,0
2013-11-11 16:46:24.947,33,3.3,52.17015,4.457851,0,0,-1,14.73217,10,1384184768,-0.004272461,-0.420105,-0.926239,-10.03559,-2.520232,-45.89069,12.42564,12.08261,25,0.0.0.0,10.139.104.221,1,0
2013-11-11 16:46:25.472,34,3.4,52.17015,4.457851,0,0,-1,14.73217,10,1384184768,-0.001434326,-0.4211273,-0.9223175,-8.493401,-1.203982,-45.08678,5.377206,5.034177,25,0.0.0.0,10.139.104.221,1,0
2013-11-11 16:46:25.642,35,3.5,52.17015,4.457851,0,0,-1,14.97579,10,1384184769,-0.009262085,-0.4121094,-0.9165344,-10.31098,-1.149142,-46.29265,5.63697,5.293941,25,0.0.0.0,10.139.104.221,1,0
2013-11-11 16:46:25.801,36,3.6,52.17015,4.457851,0,0,-1,14.97579,10,1384184769,-0.007385254,-0.4102478,-0.9223785,-8.493401,-0.3264853,-46.6946,5.75143,5.408401,25,0.0.0.0,10.139.104.221,1,0
2013-11-11 16:46:25.932,37,3.7,52.17015,4.457851,0,0,-1,14.97579,10,1384184769,-0.009216309,-0.4140625,-0.9165344,-6.896137,-1.368514,-45.37389,5.475983,5.132954,25,0.0.0.0,10.139.104.221,1,0
2013-11-11 16:46:26.301,38,3.8,52.17015,4.457851,0,0,-1,14.97579,10,1384184769,-0.007171631,-0.4209442,-0.9165039,-7.777386,-1.368514,-44.68483,5.236631,4.893602,25,0.0.0.0,10.139.104.221,1,0
2013-11-11 16:46:26.428,39,3.9,52.17015,4.457851,0,0,-1,14.97579,10,1384184769,-0.007324219,-0.414093,-0.9165344,-6.345356,-1.916952,-45.37389,5.064694,4.721665,25,0.0.0.0,10.139.104.221,1,0
2013-11-11 16:46:26.537,40,4,52.17015,4.457851,0,0,-1,14.97579,10,1384184769,-0.007324219,-0.414093,-0.9165344,-5.07856,-1.642733,-45.77585,4.676875,4.333846,25,0.0.0.0,10.139.104.221,1,0
2013-11-11 16:46:26.638,41,4.1,52.17015,4.457851,0,0,-1,14.97579,10,1384184769,-0.007293701,-0.4150696,-0.9155426,-5.519184,-1.642736,-44.74226,4.304654,3.961625,25,0.0.0.0,10.139.104.221,1,0
2013-11-11 16:46:26.759,42,4.2,52.17015,4.457851,0,0,-1,14.97579,10,1384184769,-0.007293701,-0.4150696,-0.9155426,-6.951214,-1.862109,-44.39772,4.219228,3.876199,25,0.0.0.0,10.139.104.221,1,0
2013-11-11 16:46:26.870,43,4.3,52.17015,4.457851,0,0,-1,14.97579,10,1384184769,-0.01887512,-0.4070892,-0.9234161,-6.235199,-0.9297661,-45.71843,4.071869,3.72884,25,0.0.0.0,10.139.104.221,1,0
2013-11-11 16:46:26.954,44,4.4,52.17015,4.457851,0,0,-1,14.97579,10,1384184769,-0.007217407,-0.4171295,-0.9272308,-5.959808,-0.3264853,-46.00554,3.948141,3.605113,25,0.0.0.0,10.139.104.221,1,0
2013-11-11 16:46:27.155,45,4.5,52.17015,4.457851,0,0,-1,14.97579,10,1384184769,-0.0149231,-0.4129944,-0.9185181,-4.118107,-0.3891165,-46.01212,3.50954,3.166511,25,0.0.0.0,10.139.104.221,1,0
2013-11-11 16:46:27.238,46,4.6,52.17015,4.457851,0,0,-1,14.97579,10,1384184769,-0.007202148,-0.4161835,-0.9321136,-3.9529,-1.102054,-45.49538,3.240908,2.89788,25,0.0.0.0,10.139.104.221,1,0
2013-11-11 16:46:27.345,47,4.7,52.17015,4.457851,0,0,-1,14.97579,10,1384184769,-0.01199341,-0.4160461,-0.9262695,-4.558647,-1.047213,-46.70111,2.998805,2.655776,25,0.0.0.0,10.139.104.221,1,0
2013-11-11 16:46:27.438,48,4.8,52.17015,4.457851,0,0,-1,15.06863,10,1384184770,-0.01289368,-0.4189301,-0.9233551,-5.054256,0.1044545,-46.98818,2.749629,2.4066,25,0.0.0.0,10.139.104.221,1,0
2013-11-11 16:46:27.554,49,4.9,52.17015,4.457851,0,0,-1,15.06863,10,1384184770,-0.01679993,-0.4139557,-0.9214478,-4.833988,0.323818,-45.83987,2.603729,2.2607,25,0.0.0.0,10.139.104.221,1,0
2013-11-11 16:46:27.677,50,5,52.17015,4.457851,0,0,-1,15.06863,10,1384184770,-0.01499939,-0.4100647,-0.9185181,-4.118107,0.04961348,-46.12695,2.393717,2.050688,25,0.0.0.0,10.139.104.221,1,0
2013-11-11 16:46:27.778,51,5.1,52.17015,4.457851,0,0,-1,15.06863,10,1384184770,-0.009185791,-0.4150238,-0.9145813,-3.897835,-1.48595,-45.32314,356.1706,355.8276,25,0.0.0.0,10.139.104.221,1,0
2013-11-11 16:46:27.966,52,5.2,52.17015,4.457851,0,0,-1,15.06863,10,1384184770,-0.009185791,-0.4150238,-0.9145813,-5.054256,-2.19889,-45.38055,358.0238,357.6808,25,0.0.0.0,10.139.104.221,1,0
2013-11-11 16:46:28.188,53,5.3,52.17015,4.457851,0,0,-1,15.06863,10,1384184770,-0.02349854,-0.4137726,-0.9156189,-5.494801,-1.979521,-46.06953,356.8729,356.5299,25,0.0.0.0,10.139.104.221,1,0
2013-11-11 16:46:28.321,54,5.4,52.17015,4.457851,0,0,-1,15.06863,10,1384184770,-0.02349854,-0.4137726,-0.9156189,-5.274529,-2.089202,-46.64368,354.8897,354.5467,25,0.0.0.0,10.139.104.221,1,0
2013-11-11 16:46:28.438,55,5.5,52.17015,4.457851,0,0,-1,15.06863,10,1384184770,-0.02342224,-0.4167328,-0.9195099,-4.999187,-3.569921,-45.5528,354.8382,354.4951,25,0.0.0.0,10.139.104.221,1,0
2013-11-11 16:46:28.522,56,5.6,52.17015,4.457851,0,0,-1,15.06863,10,1384184770,-0.01783752,-0.4119568,-0.9175568,-5.549866,-3.679603,-44.74898,355.2378,354.8947,25,0.0.0.0,10.139.104.221,1,0
2013-11-11 16:46:28.629,57,5.7,52.17015,4.457851,0,0,-1,15.06863,10,1384184770,-0.01774597,-0.4139709,-0.925354,-5.715069,-3.844129,-45.49538,355.4832,355.1401,25,0.0.0.0,10.139.104.221,1,0
2013-11-11 16:46:28.722,58,5.8,52.17015,4.457851,0,0,-1,15.06863,10,1384184770,-0.01858521,-0.4197998,-0.9233856,-5.660004,-3.350558,-46.12695,355.2426,354.8996,25,0.0.0.0,10.139.104.221,1,0
2013-11-11 16:46:28.813,59,5.9,52.17015,4.457851,0,0,-1,15.06863,10,1384184770,-0.02053833,-0.4187164,-0.9165649,-5.494801,-3.405399,-46.2992,355.2252,354.8822,25,0.0.0.0,10.139.104.221,1,0
2013-11-11 16:46:28.913,60,6,52.17015,4.457851,0,0,-1,15.06863,10,1384184770,-0.02053833,-0.4187164,-0.9165649,-5.384663,-3.624762,-46.06953,355.1988,354.8558,25,0.0.0.0,10.139.104.221,1,0
2013-11-11 16:46:29.052,61,6.1,52.17015,4.457851,0,0,-1,15.22871,10,1384184771,-0.02153015,-0.4157867,-0.9185333,-5.825207,-4.282863,-45.9547,354.8831,354.5401,25,0.0.0.0,10.139.104.221,1,0
2013-11-11 16:46:29.253,62,6.2,52.17015,4.457851,0,0,-1,15.22871,10,1384184771,-0.01693726,-0.4089966,-0.9146271,-9.019138,-3.405401,-47.21784,1.823422,1.480394,25,0.0.0.0,10.139.104.221,1,0
2013-11-11 16:46:29.344,63,6.3,52.17015,4.457851,0,0,-1,15.22871,10,1384184771,-0.02435303,-0.4167328,-0.921463,-9.404613,-3.350561,-47.27526,2.089132,1.746104,25,0.0.0.0,10.139.104.221,1,0
2013-11-11 16:46:29.438,64,6.4,52.17015,4.457851,0,0,-1,15.22871,10,1384184771,-0.02441406,-0.4147186,-0.9146423,-8.633663,-4.008657,-46.35661,2.375788,2.03276,25,0.0.0.0,10.139.104.221,1,0
2013-11-11 16:46:29.547,65,6.5,52.17015,4.457851,0,0,-1,15.22871,10,1384184771,-0.003967285,-0.4338226,-0.9271698,-9.184341,-3.789294,-46.01212,2.554213,2.211184,25,0.0.0.0,10.139.104.221,1,0
2013-11-11 16:46:29.694,66,6.6,52.17015,4.457851,0,0,-1,15.22871,10,1384184771,-0.01031494,-0.4483185,-0.9223022,-9.129272,-3.515084,-46.64368,2.760485,2.417457,25,0.0.0.0,10.139.104.221,1,0
2013-11-11 16:46:29.925,67,6.7,52.17015,4.457851,0,0,-1,15.22871,10,1384184771,-0.01461792,-0.3407898,-0.9303741,-8.027916,-3.734447,-46.75852,2.976257,2.633228,25,0.0.0.0,10.139.104.221,1,0
2013-11-11 16:46:30.166,68,6.8,52.17015,4.457851,0,0,-1,15.22871,10,1384184771,-0.05108643,-0.4122925,-0.919632,-8.303257,-3.67961,-45.89729,3.136969,2.79394,25,0.0.0.0,10.139.104.221,1,0
2013-11-11 16:46:30.272,69,6.9,52.17015,4.457851,0,0,-1,15.22871,10,1384184771,-0.05108643,-0.4122925,-0.919632,-7.642441,-3.350561,-46.12695,4.325484,3.982455,25,0.0.0.0,10.139.104.221,1,0
2013-11-11 16:46:30.492,70,7,52.17015,4.457851,0,0,-1,15.22871,10,1384184771,-0.02430725,-0.4290009,-0.8717651,-7.587376,-3.515084,-46.06953,4.089962,3.746933,25,0.0.0.0,10.139.104.221,1,0
2013-11-11 16:46:30.662,71,7.1,52.17015,4.457851,0,0,-1,15.34263,10,1384184772,-0.05697632,-0.4510498,-0.8961945,-7.862717,-2.802146,-46.81593,3.280033,2.937004,25,0.0.0.0,10.139.104.221,1,0
2013-11-11 16:46:30.769,72,7.2,52.17015,4.457851,0,0,-1,15.34263,10,1384184772,-0.04478455,-0.4397278,-0.9146729,-8.523529,-2.911828,-45.89729,3.428022,3.084993,25,0.0.0.0,10.139.104.221,1,0
2013-11-11 16:46:30.880,73,7.3,52.17015,4.457851,0,0,-1,15.34263,10,1384184772,-0.05368042,-0.4221039,-0.9303131,-8.138054,-3.07635,-46.2992,3.689544,3.346515,25,0.0.0.0,10.139.104.221,1,0
2013-11-11 16:46:31.028,74,7.4,52.17015,4.457851,0,0,-1,15.34263,10,1384184772,-0.05368042,-0.4221039,-0.9303131,-8.358322,-2.966668,-46.64368,8.870604,8.527575,25,0.0.0.0,10.139.104.221,1,0
2013-11-11 16:46:31.254,75,7.5,52.17015,4.457851,0,0,-1,15.34263,10,1384184772,-0.0513916,-0.3948822,-0.9401245,-8.193119,-2.582779,-46.35661,11.57825,11.23522,25,0.0.0.0,10.139.104.221,1,0
2013-11-11 16:46:31.351,76,7.6,52.17015,4.457851,0,0,-1,15.34263,10,1384184772,-0.04086304,-0.3980103,-0.9400787,-7.312038,-2.80214,-45.89729,11.70351,11.36048,25,0.0.0.0,10.139.104.221,1,0
2013-11-11 16:46:31.452,77,7.7,52.17015,4.457851,0,0,-1,15.34263,10,1384184772,-0.02215576,-0.3828125,-0.9468689,-5.99041,-3.569921,-46.81593,8.335817,7.992789,25,0.0.0.0,10.139.104.221,1,0
2013-11-11 16:46:31.568,78,7.8,52.17015,4.457851,0,0,-1,15.34263,10,1384184772,-0.02223206,-0.3779755,-0.952713,-6.486019,-4.063496,-44.92123,9.84954,9.506511,25,0.0.0.0,10.139.104.221,1,0
2013-11-11 16:46:31.821,79,7.9,52.17015,4.457851,0,0,-1,15.34263,10,1384184772,-0.0446167,-0.3989258,-0.9420319,-6.596157,-2.747305,-46.87335,10.19604,9.853009,25,0.0.0.0,10.139.104.221,1,0
2013-11-11 16:46:31.938,80,8,52.17015,4.457851,0,0,-1,15.84279,10,1384184773,-0.04455566,-0.4055939,-0.9215851,-6.981628,-3.021509,-46.24178,10.23827,9.895239,25,0.0.0.0,10.139.104.221,1,0
2013-11-11 16:46:32.202,81,8.1,52.17015,4.457851,0,0,-1,15.84279,10,1384184773,-0.04627991,-0.4134369,-0.9273987,-6.43095,-3.240879,-45.32314,10.20542,9.862389,25,0.0.0.0,10.139.104.221,1,0
2013-11-11 16:46:32.323,82,8.2,52.17015,4.457851,0,0,-1,15.84279,10,1384184773,-0.04627991,-0.4134369,-0.9273987,-7.422173,-3.021512,-45.66763,10.25856,9.915536,25,0.0.0.0,10.139.104.221,1,0
2013-11-11 16:46:32.441,83,8.3,52.17015,4.457851,0,0,-1,15.84279,10,1384184773,-0.09466553,-0.388443,-0.8643646,-7.642441,-3.240876,-46.58627,10.30728,9.964247,25,0.0.0.0,10.139.104.221,1,0
2013-11-11 16:46:32.538,84,8.400001,52.17015,4.457851,0,0,-1,15.84279,10,1384184773,-0.09466553,-0.388443,-0.8643646,-7.972851,-4.118337,-46.70111,10.47395,10.13093,25,0.0.0.0,10.139.104.221,1,0
2013-11-11 16:46:32.625,85,8.5,52.17015,4.457851,0,0,-1,15.84279,10,1384184773,-0.079422,-0.3738556,-0.9461365,-7.807644,-3.624765,-45.03606,10.71777,10.37474,25,0.0.0.0,10.139.104.221,1,0
2013-11-11 16:46:32.726,86,8.6,52.17015,4.457851,0,0,-1,15.84279,10,1384184773,-0.04862976,-0.3760223,-1.012192,-8.633663,-4.55707,-46.58627,10.8856,10.54257,25,0.0.0.0,10.139.104.221,1,0
2013-11-11 16:46:32.818,87,8.7,52.17015,4.457851,0,0,-1,15.84279,10,1384184773,-0.02296448,-0.3812103,-0.9867859,-8.027916,-4.392547,-46.75852,10.95549,10.61246,25,0.0.0.0,10.139.104.221,1,0
2013-11-11 16:46:32.921,88,8.8,52.17015,4.457851,0,0,-1,15.84279,10,1384184773,-0.01785278,-0.3997192,-0.9701538,-7.036697,-4.611914,-45.83987,10.97788,10.63485,25,0.0.0.0,10.139.104.221,1,0
2013-11-11 16:46:33.113,89,8.900001,52.17015,4.457851,0,0,-1,15.84279,10,1384184773,-0.03613281,-0.3961487,-0.9410248,-7.917782,-5.599062,-45.38055,11.04893,10.7059,25,0.0.0.0,10.139.104.221,1,0
2013-11-11 16:46:33.213,90,9,52.17015,4.457851,0,0,-1,16.15353,10,1384184774,-0.0486908,-0.392746,-0.9148102,-7.697514,-4.611914,-44.80639,11.28435,10.94132,25,0.0.0.0,10.139.104.221,1,0
2013-11-11 16:46:33.326,91,9.1,52.17015,4.457851,0,0,-1,16.15353,10,1384184774,-0.0486908,-0.392746,-0.9148102,-8.853935,-5.434536,-45.5528,11.42787,11.08484,25,0.0.0.0,10.139.104.221,1,0
2013-11-11 16:46:33.570,92,9.2,52.17015,4.457851,0,0,-1,16.15353,10,1384184774,-0.054245,-0.4013519,-0.9070282,-9.129272,-4.721599,-46.41403,11.57554,11.23251,25,0.0.0.0,10.139.104.221,1,0
2013-11-11 16:46:33.801,93,9.3,52.17015,4.457851,0,0,-1,16.15353,10,1384184774,-0.06283569,-0.401123,-0.8992462,-7.862717,-5.215169,-45.78246,11.90143,11.5584,25,0.0.0.0,10.139.104.221,1,0
2013-11-11 16:46:33.946,94,9.400001,52.17015,4.457851,0,0,-1,16.15353,10,1384184774,-0.04936218,-0.4054413,-0.9147797,-8.688732,-5.928107,-45.9547,13.76987,13.42684,25,0.0.0.0,10.139.104.221,1,0
2013-11-11 16:46:34.165,95,9.5,52.17015,4.457851,0,0,-1,16.15353,10,1384184774,-0.05052185,-0.3956299,-0.9148102,-9.73502,-8.725025,-45.2083,18.27363,17.9306,25,0.0.0.0,10.139.104.221,1,0
2013-11-11 16:46:34.272,96,9.6,52.17015,4.457851,0,0,-1,16.15353,10,1384184774,-0.04391479,-0.3910065,-0.9293976,-9.624882,-9.163758,-45.66763,18.33709,17.99406,25,0.0.0.0,10.139.104.221,1,0
2013-11-11 16:46:34.394,97,9.7,52.17015,4.457851,0,0,-1,16.15353,10,1384184774,-0.04490662,-0.3880768,-0.9313507,-9.459675,-8.889548,-45.26572,18.08811,17.74508,25,0.0.0.0,10.139.104.221,1,0
2013-11-11 16:46:34.542,98,9.8,52.17015,4.457851,0,0,-1,16.15353,10,1384184774,-0.04298401,-0.3891296,-0.9342651,-9.239407,-8.889548,-45.26572,17.75454,17.41151,25,0.0.0.0,10.139.104.221,1,0
2013-11-11 16:46:34.638,99,9.900001,52.17015,4.457851,0,0,-1,16.15353,10,1384184774,-0.04298401,-0.3891296,-0.9342651,-9.56982,-10.31543,-45.03606,17.7933,17.45027,25,0.0.0.0,10.139.104.221,1,0
2013-11-11 16:46:34.719,100,10,52.17015,4.457851,0,0,-1,16.15353,10,1384184774,-0.04837036,-0.4036407,-0.9313202,-9.790081,-9.328281,-45.38055,17.95646,17.61343,25,0.0.0.0,10.139.104.221,1,0
2013-11-11 16:46:34.820,101,10.1,52.17015,4.457851,0,0,-1,16.15353,10,1384184774,-0.05488586,-0.4094391,-0.9371643,-8.743797,-8.505659,-45.89729,17.92749,17.58447,25,0.0.0.0,10.139.104.221,1,0
2013-11-11 16:46:34.970,102,10.2,52.17015,4.457851,0,0,-1,16.22213,10,1384184775,-0.0539856,-0.4084015,-0.9303436,-8.633663,-9.931538,-46.47144,17.79586,17.45283,25,0.0.0.0,10.139.104.221,1,0
2013-11-11 16:46:35.138,103,10.3,52.17015,4.457851,0,0,-1,16.22213,10,1384184775,-0.03894043,-0.402771,-0.9215698,-8.413391,-9.821853,-44.97865,17.79382,17.45079,25,0.0.0.0,10.139.104.221,1,0
2013-11-11 16:46:35.256,104,10.4,52.17015,4.457851,0,0,-1,16.22213,10,1384184775,-0.03816223,-0.3949585,-0.9205933,-9.239407,-9.2186,-44.80639,17.91412,17.57109,25,0.0.0.0,10.139.104.221,1,0
2013-11-11 16:46:35.352,105,10.5,52.17015,4.457851,0,0,-1,16.22213,10,1384184775,-0.04293823,-0.3948517,-0.9176941,-9.184341,-9.054077,-45.89729,18.07832,17.73529,25,0.0.0.0,10.139.104.221,1,0
2013-11-11 16:46:35.439,106,10.6,52.17015,4.457851,0,0,-1,16.22213,10,1384184775,-0.03909302,-0.3968811,-0.9176788,-7.972851,-9.163758,-46.81593,18.03602,17.69299,25,0.0.0.0,10.139.104.221,1,0
2013-11-11 16:46:35.536,107,10.7,52.17015,4.457851,0,0,-1,16.22213,10,1384184775,-0.03244019,-0.394165,-0.9293365,-7.477242,-10.20575,-45.61021,17.8857,17.54267,25,0.0.0.0,10.139.104.221,1,0
2013-11-11 16:46:35.762,108,10.8,52.17015,4.457851,0,0,-1,16.22213,10,1384184775,-0.0390625,-0.3950653,-0.9332581,-8.413391,-10.26059,-44.63415,17.89067,17.54764,25,0.0.0.0,10.139.104.221,1,0
2013-11-11 16:46:36.114,109,10.9,52.17015,4.457851,0,0,-1,16.22213,10,1384184775,-0.0390625,-0.3950653,-0.9332581,-8.413391,-9.273441,-45.78246,18.08323,17.74021,25,0.0.0.0,10.139.104.221,1,0
2013-11-11 16:46:36.252,110,11,52.17015,4.457851,0,0,-1,16.22213,10,1384184775,-0.03622437,-0.394104,-0.9312897,-8.303257,-10.04122,-45.43797,18.08848,17.74545,25,0.0.0.0,10.139.104.221,1,0
2013-11-11 16:46:36.451,111,11.1,52.17015,4.457851,0,0,-1,16.22213,10,1384184775,-0.03793335,-0.4047546,-0.9234924,-7.917782,-9.218596,-45.38055,18.06448,17.72145,25,0.0.0.0,10.139.104.221,1,0
2013-11-11 16:46:36.564,112,11.2,52.17015,4.457851,0,0,-1,16.22213,10,1384184775,-0.03515625,-0.3999939,-0.9302979,-9.019138,-9.218594,-45.49538,18.05327,17.71024,25,0.0.0.0,10.139.104.221,1,0
2013-11-11 16:46:36.654,113,11.3,52.17015,4.457851,0,0,-1,16.22213,10,1384184775,-0.03990173,-0.3998718,-0.92836,-10.06543,-7.847559,-46.01212,19.68764,19.34462,25,0.0.0.0,10.139.104.221,1,0
2013-11-11 16:46:36.731,114,11.4,52.17015,4.457851,0,0,-1,16.22213,10,1384184775,-0.04826355,-0.4104156,-0.9225464,-9.184341,-6.421681,-46.24178,17.35952,17.01649,25,0.0.0.0,10.139.104.221,1,0
2013-11-11 16:46:36.848,115,11.5,52.17015,4.457851,0,0,-1,16.22213,10,1384184775,-0.03967285,-0.4105988,-0.9244385,-9.404613,-5.873266,-46.24178,16.80523,16.4622,25,0.0.0.0,10.139.104.221,1,0
2013-11-11 16:46:36.948,116,11.6,52.17015,4.457851,0,0,-1,16.361,10,1384184776,-0.03985596,-0.4036865,-0.9186249,-9.790081,-6.037788,-46.2992,15.98327,15.64024,25,0.0.0.0,10.139.104.221,1,0
2013-11-11 16:46:37.139,117,11.7,52.17015,4.457851,0,0,-1,16.361,10,1384184776,-0.04457092,-0.4074554,-0.9108734,-10.72624,-4.995806,-45.2083,17.32796,16.98493,25,0.0.0.0,10.139.104.221,1,0
2013-11-11 16:46:37.229,118,11.8,52.17015,4.457851,0,0,-1,16.361,10,1384184776,-0.04833984,-0.4112091,-0.9030762,-11.33198,-4.611917,-44.69157,15.49478,15.15175,25,0.0.0.0,10.139.104.221,1,0
2013-11-11 16:46:37.320,119,11.9,52.17015,4.457851,0,0,-1,16.361,10,1384184776,-0.04833984,-0.4112091,-0.9030762,-10.94651,-4.337706,-45.89729,12.83228,12.48926,25,0.0.0.0,10.139.104.221,1,0
2013-11-11 16:46:37.413,120,12,52.17015,4.457851,0,0,-1,16.361,10,1384184776,-0.04072571,-0.4085388,-0.9156952,-10.39583,-5.653899,-46.35661,10.07062,9.727595,25,0.0.0.0,10.139.104.221,1,0
2013-11-11 16:46:37.515,121,12.1,52.17015,4.457851,0,0,-1,16.361,10,1384184776,-0.03981018,-0.4047546,-0.9273834,-9.790081,-6.805571,-45.26572,9.292318,8.949289,25,0.0.0.0,10.139.104.221,1,0
2013-11-11 16:46:37.625,122,12.2,52.17015,4.457851,0,0,-1,16.361,10,1384184776,-0.04275513,-0.4008026,-0.9283752,-9.349545,-5.92811,-45.26572,8.712173,8.369144,25,0.0.0.0,10.139.104.221,1,0
2013-11-11 16:46:37.780,123,12.3,52.17015,4.457851,0,0,-1,16.361,10,1384184776,-0.04270935,-0.4046173,-0.9186401,-8.798866,-6.037792,-46.2992,6.480508,6.137479,25,0.0.0.0,10.139.104.221,1,0
2013-11-11 16:46:37.878,124,12.4,52.17015,4.457851,0,0,-1,16.361,10,1384184776,-0.04171753,-0.4065552,-0.9147491,-8.964069,-5.873269,-45.5528,6.451041,6.108012,25,0.0.0.0,10.139.104.221,1,0
2013-11-11 16:46:38.126,125,12.5,52.17015,4.457851,0,0,-1,16.361,10,1384184776,-0.03796387,-0.4018707,-0.92836,-8.46846,-6.586204,-46.18436,6.039515,5.696486,25,0.0.0.0,10.139.104.221,1,0
2013-11-11 16:46:38.251,126,12.6,52.17015,4.457851,0,0,-1,16.361,10,1384184776,-0.03796387,-0.4018707,-0.92836,-9.349545,-6.805573,-45.9547,5.784557,5.441528,25,0.0.0.0,10.139.104.221,1,0
2013-11-11 16:46:38.400,127,12.7,52.17015,4.457851,0,0,-1,16.361,10,1384184776,-0.04650879,-0.4036102,-0.9235229,-9.459675,-6.586209,-46.41403,4.770358,4.42733,25,0.0.0.0,10.139.104.221,1,0
2013-11-11 16:46:38.520,128,12.8,52.17015,4.457851,0,0,-1,16.46271,10,1384184777,-0.04545593,-0.408493,-0.9215698,-8.743797,-6.202317,-47.0456,5.287834,4.944806,25,0.0.0.0,10.139.104.221,1,0
2013-11-11 16:46:38.641,129,12.9,52.17015,4.457851,0,0,-1,16.46271,10,1384184777,-0.04151917,-0.4125671,-0.9302979,-8.523529,-5.544218,-45.89729,5.037902,4.694873,25,0.0.0.0,10.139.104.221,1,0
2013-11-11 16:46:38.714,130,13,52.17015,4.457851,0,0,-1,16.46271,10,1384184777,-0.03457642,-0.4216614,-0.9487457,-8.358322,-5.818422,-46.41403,4.838118,4.495089,25,0.0.0.0,10.139.104.221,1,0
2013-11-11 16:46:38.829,131,13.1,52.17015,4.457851,0,0,-1,16.46271,10,1384184777,-0.07281494,-0.4215088,-0.9070435,-8.909,-6.147476,-47.56234,3.415699,3.07267,25,0.0.0.0,10.139.104.221,1,0
2013-11-11 16:46:38.925,132,13.2,52.17015,4.457851,0,0,-1,16.46271,10,1384184777,-0.05477905,-0.4199219,-0.9059753,-8.248192,-5.708743,-47.44751,3.036281,2.693252,25,0.0.0.0,10.139.104.221,1,0
2013-11-11 16:46:39.133,133,13.3,52.17015,4.457851,0,0,-1,16.46271,10,1384184777,-0.05787659,-0.4118958,-0.8904419,-8.523529,-8.066926,-43.94516,1.623729,1.280701,25,0.0.0.0,10.139.104.221,1,0
2013-11-11 16:46:39.229,134,13.4,52.17015,4.457851,0,0,-1,16.46271,10,1384184777,-0.06364441,-0.4079285,-0.9002228,-9.294483,-7.847559,-42.91168,4.171877,3.828848,25,0.0.0.0,10.139.104.221,1,0
2013-11-11 16:46:39.320,135,13.5,52.17015,4.457851,0,0,-1,16.46271,10,1384184777,-0.05410767,-0.4062958,-0.9128418,-9.459675,-7.024935,-43.08392,3.052087,2.709058,25,0.0.0.0,10.139.104.221,1,0
2013-11-11 16:46:39.415,136,13.6,52.17015,4.457851,0,0,-1,16.46271,10,1384184777,-0.05410767,-0.4062958,-0.9128418,-8.853935,-7.079775,-43.7155,0.8952906,0.5522618,25,0.0.0.0,10.139.104.221,1,0
2013-11-11 16:46:39.629,137,13.7,52.17015,4.457851,0,0,-1,16.46271,10,1384184777,-0.04275513,-0.3998566,-0.9322968,-9.679951,-6.586204,-43.42842,3.046422,2.703393,25,0.0.0.0,10.139.104.221,1,0
2013-11-11 16:46:39.779,138,13.8,52.17015,4.457851,0,0,-1,16.46271,10,1384184777,-0.04275513,-0.3998566,-0.9322968,-8.798866,-6.695889,-42.05045,0.8942616,0.5512328,25,0.0.0.0,10.139.104.221,1,0
2013-11-11 16:46:39.867,139,13.9,52.17015,4.457851,0,0,-1,16.56494,10,1384184778,-0.03720093,-0.3940582,-0.9283752,-8.853935,-7.299148,-43.02651,0.8822443,0.5392155,25,0.0.0.0,10.139.104.221,1,0
2013-11-11 16:46:40.121,140,14,52.17015,4.457851,0,0,-1,16.56494,10,1384184778,-0.02764893,-0.3943329,-0.936142,-7.972851,-7.299145,-43.14134,0.5731984,0.2301696,25,0.0.0.0,10.139.104.221,1,0
2013-11-11 16:46:40.231,141,14.1,52.17015,4.457851,0,0,-1,16.56494,10,1384184778,-0.03535461,-0.3921204,-0.9254608,-8.46846,-7.244304,-42.6246,0.4263746,0.08334583,25,0.0.0.0,10.139.104.221,1,0
2013-11-11 16:46:40.366,142,14.2,52.17015,4.457851,0,0,-1,16.56494,10,1384184778,-0.03916931,-0.3939362,-0.9176788,-8.413391,-7.957241,-41.99303,0.2501333,359.9071,25,0.0.0.0,10.139.104.221,1,0
2013-11-11 16:46:40.472,143,14.3,52.17015,4.457851,0,0,-1,16.56494,10,1384184778,-0.03038025,-0.4019775,-0.9234772,-12.37828,-11.24773,-41.99303,1.960365,1.617336,25,0.0.0.0,10.139.104.221,1,0
2013-11-11 16:46:40.555,144,14.4,52.17015,4.457851,0,0,-1,16.56494,10,1384184778,-0.03038025,-0.4019775,-0.9234772,-14.85633,-12.18004,-41.01697,4.206988,3.86396,25,0.0.0.0,10.139.104.221,1,0
2013-11-11 16:46:40.651,145,14.5,52.17015,4.457851,0,0,-1,16.56494,10,1384184778,-0.02360535,-0.4051514,-0.9370575,-21.18912,-17.71903,-38.66294,6.744099,6.40107,25,0.0.0.0,10.139.104.221,1,0
2013-11-11 16:46:40.747,146,14.6,52.17015,4.457851,0,0,-1,16.56494,10,1384184778,-0.03120422,-0.4068909,-0.9273529,-23.7773,-20.40626,-37.11272,7.234931,6.891902,25,0.0.0.0,10.139.104.221,1,0
2013-11-11 16:46:40.862,147,14.7,52.17015,4.457851,0,0,-1,16.56494,10,1384184778,-0.03797913,-0.4009247,-0.9322815,-27.24658,-24.30001,-32.11757,7.82779,7.484762,25,0.0.0.0,10.139.104.221,1,0
2013-11-11 16:46:40.982,148,14.8,52.17015,4.457851,0,0,-1,16.56494,10,1384184778,-0.04432678,-0.4135284,-0.9351807,-29.99997,-29.89384,-26.14635,7.632953,7.289924,25,0.0.0.0,10.139.104.221,1,0
2013-11-11 16:46:41.285,149,14.9,52.17015,4.457851,0,0,-1,16.56494,10,1384184778,-0.04408264,-0.4280396,-0.9176178,-25.70468,-42.06865,-13.62977,0.4585658,0.115537,25,0.0.0.0,10.139.104.221,1,0
2013-11-11 16:46:41.461,150,15,52.17015,4.457851,0,0,-1,16.10047,10,1384184779,-0.0227356,-0.409729,-0.8981018,-24.21785,-44.42683,-10.12743,0.5582002,0.2151714,25,0.0.0.0,10.139.104.221,1,0
2013-11-11 16:46:41.571,151,15.1,52.17015,4.457851,0,0,-1,16.10047,10,1384184779,-0.01055908,-0.3992462,-0.9019775,-23.00635,-46.40113,-7.715973,0.3496816,0.006652832,25,0.0.0.0,10.139.104.221,1,0
2013-11-11 16:46:41.739,152,15.2,52.17015,4.457851,0,0,-1,16.10047,10,1384184779,-0.01055908,-0.3992462,-0.9019775,-19.54781,-48.27282,-7.917252,356.7546,356.4116,25,0.0.0.0,10.139.104.221,1,0
2013-11-11 16:46:41.838,153,15.3,52.17015,4.457851,0,0,-1,16.10047,10,1384184779,-0.02008057,-0.3971863,-0.9107971,-18.1712,-48.87605,-6.137344,359.8907,359.5477,25,0.0.0.0,10.139.104.221,1,0
2013-11-11 16:46:41.960,154,15.4,52.17015,4.457851,0,0,-1,16.10047,10,1384184779,-0.01791382,-0.4061737,-0.9263306,-16.51925,-49.20509,-3.955536,356.9908,356.6478,25,0.0.0.0,10.139.104.221,1,0
2013-11-11 16:46:42.191,155,15.5,52.17015,4.457851,0,0,-1,16.10047,10,1384184779,-0.0118866,-0.4237366,-0.9106903,-15.30783,-49.20509,-2.233047,351.3127,350.9697,25,0.0.0.0,10.139.104.221,1,0
2013-11-11 16:46:42.337,156,15.6,52.17015,4.457851,0,0,-1,16.10047,10,1384184779,-0.00592041,-0.4355774,-0.9086914,-16.1338,-49.80832,-1.256973,347.5189,347.1758,25,0.0.0.0,10.139.104.221,1,0
2013-11-11 16:46:42.442,157,15.7,52.17015,4.457851,0,0,-1,16.10047,10,1384184779,-0.007034302,-0.4296112,-0.9028625,-15.91354,-48.93089,-1.601479,344.5114,344.1683,25,0.0.0.0,10.139.104.221,1,0
2013-11-11 16:46:42.539,158,15.8,52.17015,4.457851,0,0,-1,16.10047,10,1384184779,-0.004425049,-0.4151306,-0.9155273,-15.91354,-49.25992,-2.979462,347.0656,346.7226,25,0.0.0.0,10.139.104.221,1,0
2013-11-11 16:46:42.636,159,15.9,52.17015,4.457851,0,0,-1,16.10047,10,1384184779,0.002075195,-0.4065857,-0.9281769,-15.96861,-48.21797,-7.056007,344.4095,344.0665,25,0.0.0.0,10.139.104.221,1,0
2013-11-11 16:46:42.712,160,16,52.17015,4.457851,0,0,-1,16.10047,10,1384184779,0.002075195,-0.4065857,-0.9281769,-17.23509,-47.61474,-9.295235,338.6227,338.2797,25,0.0.0.0,10.139.104.221,1,0
2013-11-11 16:46:42.818,161,16.1,52.17015,4.457851,0,0,-1,16.10047,10,1384184779,0.006011963,-0.4134369,-0.9213562,-22.30104,-46.51796,-8.721069,334.9085,334.5655,25,0.0.0.0,10.139.104.221,1,0
2013-11-11 16:46:42.910,162,16.2,52.17015,4.457851,0,0,-1,16.10047,10,1384184779,0.01062012,-0.4085846,-0.9145355,-24.66883,-46.24377,-8.089493,333.1512,332.8082,25,0.0.0.0,10.139.104.221,1,0
2013-11-11 16:46:43.100,163,16.3,52.17015,4.457851,0,0,-1,9.5,5,1384184780,0.01062012,-0.4085846,-0.9145355,-28.90881,-44.54375,-3.898125,303.4438,303.1008,25,0.0.0.0,10.139.104.221,1,0
2013-11-11 16:46:43.202,164,16.4,52.17015,4.457851,0,0,-1,9.5,5,1384184780,0.01046753,-0.4017639,-0.9184418,-31.1114,-42.78889,-2.175636,290.3505,290.0075,25,0.0.0.0,10.139.104.221,1,0
2013-11-11 16:46:43.361,165,16.5,52.17015,4.457851,0,0,-1,9.5,5,1384184780,-0.03495789,-0.409729,-0.925415,-43.99932,-15.8796,-24.43739,206.4872,206.1441,15,0.0.0.0,10.139.104.221,1,0
2013-11-11 16:46:43.451,166,16.6,52.17015,4.457851,0,0,-1,9.5,5,1384184780,-0.03495789,-0.409729,-0.925415,-44.32969,-11.60203,-26.38952,201.6303,201.2873,15,0.0.0.0,10.139.104.221,1,0
2013-11-11 16:46:43.567,167,16.7,52.17015,4.457851,0,0,-1,9.5,5,1384184780,-0.03791809,-0.4104004,-0.8981628,-43.17339,-10.8891,-28.97321,199.4951,199.1521,15,0.0.0.0,10.139.104.221,1,0
2013-11-11 16:46:43.820,168,16.8,52.17015,4.457851,0,0,-1,9.5,5,1384184780,-0.02362061,-0.4238281,-0.8396606,-41.05822,-9.987213,-29.78336,194.4135,194.0704,15,0.0.0.0,10.139.104.221,1,0
2013-11-11 16:46:43.931,169,16.9,52.17015,4.457851,0,0,-1,9.5,5,1384184780,-0.004486084,-0.4243774,-0.858078,-41.82905,-14.15522,-25.64941,189.6848,189.3417,15,0.0.0.0,10.139.104.221,1,0
2013-11-11 16:46:44.178,170,17,52.17015,4.457851,0,0,-1,9.5,5,1384184780,0.01368713,-0.4203186,-0.9096069,-43.20553,-23.31385,-11.69733,190.6197,190.2767,15,0.0.0.0,10.139.104.221,1,0
2013-11-11 16:46:44.292,171,17.1,52.17015,4.457851,0,0,-1,9.5,5,1384184780,0.01368713,-0.4203186,-0.9096069,-42.87518,-25.94627,-3.659081,183.7403,183.3973,15,0.0.0.0,10.139.104.221,1,0
2013-11-11 16:46:44.438,172,17.2,52.17015,4.457851,0,0,-1,9.5,5,1384184780,0.006317139,-0.4178009,-0.9719391,-41.82905,-27.09796,1.680603,179.0552,178.7122,15,0.0.0.0,10.139.104.221,1,0
2013-11-11 16:46:44.536,173,17.3,52.17015,4.457851,0,0,-1,15.64844,10,1384184781,0.006317139,-0.4178009,-0.9719391,-41.66387,-25.7269,6.446136,170.2771,169.9341,15,0.0.0.0,10.139.104.221,1,0
2013-11-11 16:46:44.642,174,17.4,52.17015,4.457851,0,0,-1,15.64844,10,1384184781,0.001846313,-0.427597,-0.9826508,-43.77185,-20.48595,8.177742,140.9173,140.5742,15,0.0.0.0,10.139.104.221,1,0
2013-11-11 16:46:44.716,175,17.5,52.17015,4.457851,0,0,-1,15.64844,10,1384184781,-0.004714966,-0.4342041,-0.9719391,-45.42361,-18.40206,6.225502,133.0287,132.6856,15,0.0.0.0,10.139.104.221,1,0
2013-11-11 16:46:44.830,176,17.6,52.17015,4.457851,0,0,-1,15.64844,10,1384184781,-0.02001953,-0.4337463,-0.9544983,-46.3596,-17.9085,5.82357,130.056,129.713,15,0.0.0.0,10.139.104.221,1,0
2013-11-11 16:46:44.928,177,17.7,52.17015,4.457851,0,0,-1,15.64844,10,1384184781,-0.02330017,-0.4197388,-0.9282532,-38.15588,-30.35706,4.617775,146.6537,146.3107,15,0.0.0.0,10.139.104.221,1,0
2013-11-11 16:46:45.130,178,17.8,52.17015,4.457851,0,0,-1,15.64844,10,1384184781,-0.02644348,-0.4126129,-0.9010315,-23.02971,-44.20199,3.479912,169.2218,168.8788,10,0.0.0.0,10.139.104.221,1,0
2013-11-11 16:46:45.228,179,17.9,52.17015,4.457851,0,0,-1,15.64844,10,1384184781,-0.03117371,-0.4125214,-0.9020233,-15.15637,-47.9858,-0.02271271,178.6813,178.3383,10,0.0.0.0,10.139.104.221,1,0
2013-11-11 16:46:45.324,180,18,52.17015,4.457851,0,0,-1,15.64844,10,1384184781,-0.03117371,-0.4125214,-0.9020233,-10.7517,-48.75353,-0.3672333,190.7279,190.3849,10,0.0.0.0,10.139.104.221,1,0
2013-11-11 16:46:45.405,181,18.1,52.17015,4.457851,0,0,-1,15.64844,10,1384184781,-0.03153992,-0.4370422,-0.9126587,-0.5659065,-49.35675,-3.640182,211.5764,211.2333,10,0.0.0.0,10.139.104.221,1,0
2013-11-11 16:46:45.623,182,18.2,52.17015,4.457851,0,0,-1,15.64844,10,1384184781,-0.04182434,-0.4456024,-0.9087982,7.913074,-47.71162,-12.48289,223.5449,223.2019,10,0.0.0.0,10.139.104.221,1,0
2013-11-11 16:46:45.747,183,18.3,52.17015,4.457851,0,0,-1,15.64844,10,1384184781,-0.04562378,-0.4474182,-0.9010162,6.646736,-47.65678,-14.26292,226.0598,225.7167,10,0.0.0.0,10.139.104.221,1,0
2013-11-11 16:46:45.870,184,18.4,52.17015,4.457851,0,0,-1,15.64844,10,1384184781,-0.04768372,-0.441452,-0.8961945,6.426502,-47.76645,-14.03324,225.5236,225.1806,10,0.0.0.0,10.139.104.221,1,0
2013-11-11 16:46:46.127,185,18.5,52.17015,4.457851,0,0,-1,15.88664,10,1384184782,-0.04792786,-0.4307098,-0.8981628,7.0872,-47.65678,-13.9184,225.4924,225.1493,10,0.0.0.0,10.139.104.221,1,0
2013-11-11 16:46:46.238,186,18.6,52.17015,4.457851,0,0,-1,15.88664,10,1384184782,-0.03088379,-0.4252777,-0.9058838,9.234478,-48.47935,-13.28677,224.8373,224.4943,10,0.0.0.0,10.139.104.221,1,0
2013-11-11 16:46:46.368,187,18.7,52.17015,4.457851,0,0,-1,15.88664,10,1384184782,-0.03088379,-0.4252777,-0.9058838,9.564827,-48.91805,-13.17194,224.9052,224.5622,10,0.0.0.0,10.139.104.221,1,0
2013-11-11 16:46:46.479,188,18.8,52.17015,4.457851,0,0,-1,15.88664,10,1384184782,-0.01724243,-0.3934937,-0.9273224,10.00529,-48.6987,-12.59773,225.4112,225.0681,10,0.0.0.0,10.139.104.221,1,0
2013-11-11 16:46:46.570,189,18.9,52.17015,4.457851,0,0,-1,15.88664,10,1384184782,-0.01724243,-0.3934937,-0.9273224,10.17047,-47.76646,-12.31063,226.5918,226.2488,10,0.0.0.0,10.139.104.221,1,0
2013-11-11 16:46:46.754,190,19,52.17015,4.457851,0,0,-1,15.88664,10,1384184782,-0.01257324,-0.3887329,-0.9331665,9.950237,-47.5471,-14.60744,228.5416,228.1986,10,0.0.0.0,10.139.104.221,1,0
2013-11-11 16:46:46.873,191,19.1,52.17015,4.457851,0,0,-1,15.88664,10,1384184782,-0.00668335,-0.395752,-0.9389648,9.289536,-47.32775,-15.41132,227.9601,227.6171,10,0.0.0.0,10.139.104.221,1,0
2013-11-11 16:46:46.951,192,19.2,52.17015,4.457851,0,0,-1,15.88664,10,1384184782,-0.003890991,-0.3947449,-0.9321594,8.078255,-47.87613,-14.03324,224.028,223.685,10,0.0.0.0,10.139.104.221,1,0
2013-11-11 16:46:47.160,193,19.3,52.17015,4.457851,0,0,-1,15.88664,10,1384184782,0.001953125,-0.4017029,-0.9301453,5.325336,-47.87613,-13.68871,223.9164,223.5733,10,0.0.0.0,10.139.104.221,1,0
2013-11-11 16:46:47.260,194,19.4,52.17015,4.457851,0,0,-1,15.88664,10,1384184782,-0.01020813,-0.4140015,-0.9107208,1.251019,-48.31484,-12.77,218.1669,217.8238,10,0.0.0.0,10.139.104.221,1,0
2013-11-11 16:46:47.364,195,19.5,52.17015,4.457851,0,0,-1,15.97747,10,1384184783,-0.02523804,-0.4196167,-0.9185486,-0.7310829,-49.08257,-13.57387,212.5967,212.2536,10,0.0.0.0,10.139.104.221,1,0
2013-11-11 16:46:47.438,196,19.6,52.17015,4.457851,0,0,-1,15.97747,10,1384184783,-0.02798462,-0.4273224,-0.9107361,-2.052483,-48.20515,-13.57387,210.7496,210.4066,10,0.0.0.0,10.139.104.221,1,0
2013-11-11 16:46:47.555,197,19.7,52.17015,4.457851,0,0,-1,15.97747,10,1384184783,-0.02798462,-0.4273224,-0.9107361,-1.281666,-48.64385,-12.54031,208.7926,208.4496,10,0.0.0.0,10.139.104.221,1,0
2013-11-11 16:46:47.735,198,19.8,52.17015,4.457851,0,0,-1,15.97747,10,1384184783,-0.03541565,-0.4312286,-0.9273071,-1.832249,-48.20515,-12.65515,205.9283,205.5853,10,0.0.0.0,10.139.104.221,1,0
2013-11-11 16:46:47.820,199,19.9,52.17015,4.457851,0,0,-1,15.97747,10,1384184783,-0.03541565,-0.4312286,-0.9273071,-1.721828,-47.73182,-13.37577,212.0151,211.6721,10,0.0.0.0,10.139.104.221,1,0
2013-11-11 16:46:47.955,200,20,52.17015,4.457851,0,0,-1,15.97747,10,1384184783,-0.02510071,-0.4245758,-0.925354,-1.281342,-48.28019,-13.83511,215.5834,215.2404,10,0.0.0.0,10.139.104.221,1,0
2013-11-11 16:46:48.178,201,20.1,52.17015,4.457851,0,0,-1,15.97747,10,1384184783,-0.01951599,-0.4197693,-0.9224091,1.196396,-48.77371,-13.31835,218.9295,218.5864,10,0.0.0.0,10.139.104.221,1,0
2013-11-11 16:46:48.287,202,20.2,52.17015,4.457851,0,0,-1,15.97747,10,1384184783,-0.01980591,-0.4061279,-0.9263306,1.912189,-49.4866,-12.57191,216.6059,216.2629,10,0.0.0.0,10.139.104.221,1,0
2013-11-11 16:46:48.507,203,20.3,52.17015,4.457851,0,0,-1,15.97747,10,1384184783,-0.0274353,-0.4087677,-0.9107819,0.921093,-47.95117,-14.29446,214.8797,214.5367,10,0.0.0.0,10.139.104.221,1,0
2013-11-11 16:46:48.689,204,20.4,52.17015,4.457851,0,0,-1,15.97747,10,1384184783,-0.01899719,-0.4049683,-0.9049225,2.242554,-48.38985,-14.52413,216.1579,215.8148,10,0.0.0.0,10.139.104.221,1,0
2013-11-11 16:46:48.878,205,20.5,52.17015,4.457851,0,0,-1,16.03934,10,1384184784,-0.01963806,-0.4158173,-0.9175415,2.958347,-48.11567,-14.1222,214.985,214.642,10,0.0.0.0,10.139.104.221,1,0
2013-11-11 16:46:48.949,206,20.6,52.17015,4.457851,0,0,-1,16.03934,10,1384184784,-0.0289917,-0.4234161,-0.9136658,4.610172,-47.67698,-14.69638,218.8145,218.4715,10,0.0.0.0,10.139.104.221,1,0
2013-11-11 16:46:49.193,207,20.7,52.17015,4.457851,0,0,-1,16.03934,10,1384184784,-0.03739929,-0.4319458,-0.9029694,4.830418,-48.22534,-13.08868,216.7189,216.3759,10,0.0.0.0,10.139.104.221,1,0
2013-11-11 16:46:49.319,208,20.8,52.17015,4.457851,0,0,-1,16.03934,10,1384184784,-0.03451538,-0.434906,-0.89711,6.37212,-48.66403,-13.20351,218.3898,218.0468,10,0.0.0.0,10.139.104.221,1,0
2013-11-11 16:46:49.421,209,20.9,52.17015,4.457851,0,0,-1,16.03934,10,1384184784,-0.02888489,-0.4273682,-0.9185333,9.180222,-47.62214,-12.45708,221.4251,221.0821,10,0.0.0.0,10.139.104.221,1,0
2013-11-11 16:46:49.522,210,21,52.17015,4.457851,0,0,-1,16.03934,10,1384184784,-0.03364563,-0.4216614,-0.945816,9.785896,-47.23828,-12.16999,221.8018,221.4588,10,0.0.0.0,10.139.104.221,1,0
2013-11-11 16:46:49.660,211,21.1,52.17015,4.457851,0,0,-1,16.03934,10,1384184784,-0.03643799,-0.4263916,-0.9341431,7.638519,-47.07377,-12.68675,218.915,218.5719,10,0.0.0.0,10.139.104.221,1,0
2013-11-11 16:46:49.778,212,21.2,52.17015,4.457851,0,0,-1,16.03934,10,1384184784,-0.02796936,-0.4310608,-0.8922424,7.693581,-46.90926,-12.97384,219.1628,218.8198,10,0.0.0.0,10.139.104.221,1,0
2013-11-11 16:46:49.888,213,21.3,52.17015,4.457851,0,0,-1,16.03934,10,1384184784,-0.0345459,-0.434845,-0.8912659,8.574554,-46.25122,-13.20351,223.1259,222.7828,10,0.0.0.0,10.139.104.221,1,0
2013-11-11 16:46:50.162,214,21.4,52.17015,4.457851,0,0,-1,16.03934,10,1384184784,-0.04692078,-0.4327393,-0.9010468,5.711388,-47.01893,-10.67712,214.7749,214.4318,10,0.0.0.0,10.139.104.221,1,0
2013-11-11 16:46:50.278,215,21.5,52.17015,4.457851,0,0,-1,15.91971,10,1384184785,-0.04109192,-0.4330292,-0.9214935,6.37212,-47.12861,-11.36613,216.7713,216.4283,10,0.0.0.0,10.139.104.221,1,0
2013-11-11 16:46:50.453,216,21.6,52.17015,4.457851,0,0,-1,15.91971,10,1384184785,-0.0405426,-0.4238739,-0.8816071,8.849861,-47.18345,-11.99773,222.3592,222.0162,10,0.0.0.0,10.139.104.221,1,0
2013-11-11 16:46:50.563,217,21.7,52.17015,4.457851,0,0,-1,15.91971,10,1384184785,-0.06040955,-0.4264984,-0.8913879,9.455528,-47.23829,-11.48097,223.6422,223.2992,10,0.0.0.0,10.139.104.221,1,0
2013-11-11 16:46:50.637,218,21.8,52.17015,4.457851,0,0,-1,15.91971,10,1384184785,-0.06520081,-0.4244843,-0.8953094,9.675774,-46.68992,-10.10294,222.8506,222.5076,10,0.0.0.0,10.139.104.221,1,0
2013-11-11 16:46:50.734,219,21.9,52.17015,4.457851,0,0,-1,15.91971,10,1384184785,-0.06695557,-0.4312439,-0.8894653,9.675774,-47.01893,-9.643585,220.2949,219.9519,10,0.0.0.0,10.139.104.221,1,0
2013-11-11 16:46:50.844,220,22,52.17015,4.457851,0,0,-1,15.91971,10,1384184785,-0.09449768,-0.4307709,-0.8973541,9.565651,-45.92221,-9.643585,221.8957,221.5527,10,0.0.0.0,10.139.104.221,1,0
2013-11-11 16:46:50.946,221,22.1,52.17015,4.457851,0,0,-1,15.91971,10,1384184785,-0.1134338,-0.4334106,-0.9071808,9.951077,-46.85443,-9.241661,222.8651,222.5221,10,0.0.0.0,10.139.104.221,1,0
2013-11-11 16:46:51.156,222,22.2,52.17015,4.457851,0,0,-1,15.91971,10,1384184785,-0.1134338,-0.4334106,-0.9071808,9.620708,-47.29312,-8.552643,221.626,221.283,10,0.0.0.0,10.139.104.221,1,0
2013-11-11 16:46:51.251,223,22.3,52.17015,4.457851,0,0,-1,15.91971,10,1384184785,-0.134964,-0.4486084,-0.9042816,7.858765,-47.18344,-8.782318,221.591,221.248,10,0.0.0.0,10.139.104.221,1,0
2013-11-11 16:46:51.341,224,22.4,52.17015,4.457851,0,0,-1,15.91971,10,1384184785,-0.134964,-0.4486084,-0.9042816,7.638519,-46.63508,-9.241661,224.2414,223.8984,10,0.0.0.0,10.139.104.221,1,0
2013-11-11 16:46:51.431,225,22.5,52.17015,4.457851,0,0,-1,15.91971,10,1384184785,-0.1508789,-0.4590759,-0.9101562,7.308155,-46.52541,-9.471336,223.5668,223.2238,10,0.0.0.0,10.139.104.221,1,0
2013-11-11 16:46:51.549,226,22.6,52.17015,4.457851,0,0,-1,15.91971,10,1384184785,-0.1489563,-0.4572754,-0.9237823,8.684677,-47.01893,-9.643585,225.8964,225.5534,10,0.0.0.0,10.139.104.221,1,0
2013-11-11 16:46:51.677,227,22.7,52.17015,4.457851,0,0,-1,15.75229,10,1384184786,-0.1491394,-0.45224,-0.9072571,9.400467,-47.07377,-9.586174,226.8216,226.4785,10,0.0.0.0,10.139.104.221,1,0
2013-11-11 16:46:51.777,228,22.8,52.17015,4.457851,0,0,-1,15.75229,10,1384184786,-0.1447296,-0.4413605,-0.8838959,10.22638,-46.79959,-9.184242,226.6429,226.2999,10,0.0.0.0,10.139.104.221,1,0
2013-11-11 16:46:51.897,229,22.9,52.17015,4.457851,0,0,-1,15.75229,10,1384184786,-0.1298523,-0.4269867,-0.8809509,10.66687,-46.79959,-9.643585,228.5708,228.2278,10,0.0.0.0,10.139.104.221,1,0
2013-11-11 16:46:52.145,230,23,52.17015,4.457851,0,0,-1,15.75229,10,1384184786,-0.1168976,-0.4097443,-0.8916473,11.38266,-46.08672,-9.241661,228.5472,228.2042,10,0.0.0.0,10.139.104.221,1,0
2013-11-11 16:46:52.272,231,23.1,52.17015,4.457851,0,0,-1,15.75229,10,1384184786,-0.1104431,-0.395401,-0.9121246,11.71302,-45.97705,-8.897156,228.2324,227.8894,10,0.0.0.0,10.139.104.221,1,0
2013-11-11 16:46:52.387,232,23.2,52.17015,4.457851,0,0,-1,15.75229,10,1384184786,-0.109726,-0.3856506,-0.9140625,12.70412,-46.19639,-8.437813,230.3712,230.0282,10,0.0.0.0,10.139.104.221,1,0
2013-11-11 16:46:52.570,233,23.3,52.17015,4.457851,0,0,-1,15.75229,10,1384184786,-0.09925842,-0.3858795,-0.9150238,15.18186,-46.03188,-6.083664,229.6413,229.2982,10,0.0.0.0,10.139.104.221,1,0
2013-11-11 16:46:52.770,234,23.4,52.17015,4.457851,0,0,-1,15.75229,10,1384184786,-0.1074219,-0.4032898,-0.9130554,15.29198,-44.7158,-5.624321,229.8383,229.4953,10,0.0.0.0,10.139.104.221,1,0
2013-11-11 16:46:52.871,235,23.5,52.17015,4.457851,0,0,-1,15.75229,10,1384184786,-0.1129913,-0.4137421,-0.8926086,15.78753,-44.66096,-5.222389,226.2076,225.8645,10,0.0.0.0,10.139.104.221,1,0
2013-11-11 16:46:52.952,236,23.6,52.17015,4.457851,0,0,-1,15.75229,10,1384184786,-0.1403961,-0.4228821,-0.8839417,15.89765,-44.66096,-5.107552,224.463,224.12,10,0.0.0.0,10.139.104.221,1,0
2013-11-11 16:46:53.139,237,23.7,52.17015,4.457851,0,0,-1,15.75229,10,1384184786,-0.1403961,-0.4228821,-0.8839417,16.33813,-45.7577,-5.107552,223.3255,222.9825,10,0.0.0.0,10.139.104.221,1,0
2013-11-11 16:46:53.247,238,23.8,52.17015,4.457851,0,0,-1,15.5163,10,1384184787,-0.1260681,-0.4232941,-0.8965454,16.17295,-45.70286,-5.279816,223.4703,223.1273,10,0.0.0.0,10.139.104.221,1,0
2013-11-11 16:46:53.345,239,23.9,52.17015,4.457851,0,0,-1,15.5163,10,1384184787,-0.1260681,-0.4232941,-0.8965454,14.46607,-44.77063,-4.533371,220.1084,219.7654,10,0.0.0.0,10.139.104.221,1,0
2013-11-11 16:46:53.438,240,24,52.17015,4.457851,0,0,-1,15.5163,10,1384184787,-0.1307831,-0.4213867,-0.9121246,14.41101,-45.1545,-6.083664,222.9899,222.6469,10,0.0.0.0,10.139.104.221,1,0
2013-11-11 16:46:53.555,241,24.1,52.17015,4.457851,0,0,-1,15.5163,10,1384184787,-0.1319733,-0.4115753,-0.9111938,15.23692,-45.42868,-5.222389,222.7216,222.3786,10,0.0.0.0,10.139.104.221,1,0
2013-11-11 16:46:53.694,242,24.2,52.17015,4.457851,0,0,-1,15.5163,10,1384184787,-0.1109161,-0.4150543,-0.925705,12.92436,-45.64802,-2.581161,214.5994,214.2564,10,0.0.0.0,10.139.104.221,1,0
2013-11-11 16:46:54.204,243,24.3,52.17015,4.457851,0,0,-1,15.5163,10,1384184787,-0.1028595,-0.3936615,-0.9189148,10.94217,-45.64802,-1.08828,211.5351,211.1921,10,0.0.0.0,10.139.104.221,1,0
2013-11-11 16:46:54.359,244,24.4,52.17015,4.457851,0,0,-1,15.5163,10,1384184787,-0.09820557,-0.388855,-0.9188995,13.19967,-46.14155,-2.064392,215.5618,215.2188,10,0.0.0.0,10.139.104.221,1,0
2013-11-11 16:46:54.605,245,24.5,52.17015,4.457851,0,0,-1,15.5163,10,1384184787,-0.09635925,-0.3878479,-0.9120789,13.25473,-46.08672,-3.499847,217.5209,217.1778,10,0.0.0.0,10.139.104.221,1,0
2013-11-11 16:46:54.846,246,24.6,52.17015,4.457851,0,0,-1,15.5163,10,1384184787,-0.1117859,-0.3815765,-0.8994904,13.58509,-46.52541,-3.155342,217.9069,217.5638,10,0.0.0.0,10.139.104.221,1,0
2013-11-11 16:46:55.095,247,24.7,52.17015,4.457894,0,0.2355139,101.4462,15.33621,10,1384184788,-0.1287384,-0.3852844,-0.9151306,13.03448,-45.86737,-2.810829,217.0646,216.7215,10,0.0.0.0,10.139.104.221,1,0
2013-11-11 16:46:55.245,248,24.8,52.17015,4.457894,0,0.2355139,101.4462,15.33621,10,1384184788,-0.1287384,-0.3852844,-0.9151306,12.64906,-43.94809,-2.983086,217.152,216.809,10,0.0.0.0,10.139.104.221,1,0
2013-11-11 16:46:55.344,249,24.9,52.17015,4.457894,0,0.2355139,101.4462,15.33621,10,1384184788,-0.1164246,-0.3779144,-0.9384766,13.8604,-43.5094,-3.901772,221.269,220.9259,10,0.0.0.0,10.139.104.221,1,0
2013-11-11 16:46:55.470,250,25,52.17015,4.457894,0,0.2355139,101.4462,15.33621,10,1384184788,-0.1110992,-0.3585968,-0.9511719,14.79643,-44.22227,-4.074028,222.6707,222.3277,10,0.0.0.0,10.139.104.221,1,0
2013-11-11 16:46:55.597,251,25.1,52.17015,4.457894,0,0.2355139,101.4462,15.33621,10,1384184788,-0.09239197,-0.3452759,-0.9491882,15.62234,-44.60613,-5.279816,225.2971,224.9541,10,0.0.0.0,10.139.104.221,1,0
2013-11-11 16:46:55.785,252,25.2,52.17015,4.457894,0,0.2355139,101.4462,15.33621,10,1384184788,-0.06970215,-0.3435822,-0.9286346,15.62234,-44.27711,-5.394646,227.0184,226.6754,10,0.0.0.0,10.139.104.221,1,0
2013-11-11 16:46:55.964,253,25.3,52.17015,4.457894,0,0.2355139,101.4462,15.33621,10,1384184788,-0.04981995,-0.3438263,-0.9110565,15.4021,-43.29005,-6.198502,230.6748,230.3317,10,0.0.0.0,10.139.104.221,1,0
2013-11-11 16:46:56.459,254,25.4,52.17015,4.457894,0,0.2355139,101.4462,15.33621,10,1384184788,-0.04981995,-0.3438263,-0.9110565,15.67741,-42.79653,-4.303703,231.2948,230.9518,10,0.0.0.0,10.139.104.221,1,0
2013-11-11 16:46:56.591,255,25.5,52.17015,4.457894,0,0.2355139,101.4462,15.33621,10,1384184788,-0.04373169,-0.3530884,-0.9489594,15.1268,-43.45457,-3.95919,228.9799,228.6369,10,0.0.0.0,10.139.104.221,1,0
2013-11-11 16:46:56.791,256,25.6,52.17015,4.457894,0,0.2355139,101.4462,15.33621,10,1384184788,-0.04373169,-0.3530884,-0.9489594,14.02558,-44.1126,-3.499847,223.6592,223.3162,10,0.0.0.0,10.139.104.221,1,0
2013-11-11 16:46:57.485,257,25.7,52.17015,4.457894,0,0,101.4462,15.1603,10,1384184789,-0.04830933,-0.353363,-0.9888916,13.97052,-43.94809,-1.949554,214.0484,213.7054,10,0.0.0.0,10.139.104.221,1,0
2013-11-11 16:46:57.692,258,25.8,52.17015,4.457894,0,0,101.4462,15.1603,10,1384184789,-0.06056213,-0.3486023,-1.031799,11.93327,-44.98999,1.897453,197.9187,197.5757,10,0.0.0.0,10.139.104.221,1,0
2013-11-11 16:46:58.370,259,25.9,52.17015,4.457894,0,0,101.4462,15.1603,10,1384184789,-0.06892395,-0.3516083,-1.060059,7.198032,-45.42868,3.160652,182.6951,182.3521,10,0.0.0.0,10.139.104.221,1,0
2013-11-11 16:46:58.651,260,26,52.17015,4.457894,0,0,101.4462,15.1603,10,1384184789,-0.05577087,-0.3450317,-1.058075,4.50005,-48.11567,5.05545,170.6161,170.2731,10,0.0.0.0,10.139.104.221,1,0
2013-11-11 16:46:59.197,261,26.1,52.17015,4.457894,0,0,101.4462,15.1603,10,1384184789,-0.04441833,-0.3479462,-1.031723,-0.07000351,-48.49951,5.57222,154.6029,154.2598,10,0.0.0.0,10.139.104.221,1,0
2013-11-11 16:46:59.848,262,26.2,52.17015,4.457894,0,0,101.4462,14.97884,10,1384184790,-0.05227661,-0.3501587,-0.9694519,-7.393101,-48.335,4.48127,133.779,133.4359,10,0.0.0.0,10.139.104.221,1,0
2013-11-11 16:47:00.592,263,26.3,52.17015,4.457894,0,0,101.4462,14.97884,10,1384184790,-0.0428772,-0.35289,-0.9255981,-9.595539,-49.65108,1.725204,121.148,120.805,10,0.0.0.0,10.139.104.221,1,0
2013-11-11 16:47:01.146,264,26.4,52.17015,4.457894,0,0,101.4462,14.97884,10,1384184790,-0.04774475,-0.3544769,-0.8954163,-8.989857,-49.48656,-3.155342,112.5394,112.1964,10,0.0.0.0,10.139.104.221,1,0
2013-11-11 16:47:01.593,265,26.5,52.17015,4.457894,0,0,101.4462,14.97884,10,1384184790,-0.04774475,-0.3544769,-0.8954163,-9.430347,-49.15753,-10.84937,94.14105,93.79803,10,0.0.0.0,10.139.104.221,1,0
2013-11-11 16:47:02.183,266,26.6,52.17015,4.457894,0,0,101.4462,14.90125,10,1384184791,-0.07650757,-0.3488007,-0.8712311,-8.604435,-47.34793,-16.41893,92.59533,92.2523,10,0.0.0.0,10.139.104.221,1,0
2013-11-11 16:47:02.761,267,26.7,52.17015,4.457894,0,0,101.4462,14.90125,10,1384184791,-0.07650757,-0.3488007,-0.8712311,-5.631149,-46.68989,-21.3569,86.26757,85.92455,10,0.0.0.0,10.139.104.221,1,0
2013-11-11 16:47:03.196,268,26.8,52.17015,4.457894,0,0,101.4462,14.90125,10,1384184791,-0.07929993,-0.3460693,-0.8994446,-2.327496,-44.93512,-26.18002,72.84799,72.50497,10,0.0.0.0,10.139.104.221,1,0
2013-11-11 16:47:03.835,269,26.9,52.17015,4.457894,0,0,101.4462,14.90125,10,1384184791,-0.07923889,-0.3452606,-0.9179688,2.407738,-41.86428,-30.08444,50.82682,50.48379,10,0.0.0.0,10.139.104.221,1,0
2013-11-11 16:47:04.352,270,27,52.17015,4.457894,0,0,101.4462,14.90125,10,1384184791,-0.07807922,-0.3512726,-0.9335327,2.132431,-40.82239,-31.97925,42.28612,41.94309,10,0.0.0.0,10.139.104.221,1,0
2013-11-11 16:47:04.666,271,27.1,52.17015,4.457894,0,0,101.4462,14.90125,10,1384184791,-0.06718445,-0.3653717,-0.9538727,0.04011917,-40.05467,-31.97925,38.29089,37.94786,10,0.0.0.0,10.139.104.221,1,0
2013-11-11 16:47:04.984,272,27.2,52.17017,4.457901,0,0.4725811,265.5204,14.80737,10,1384184792,-0.05822754,-0.3831635,-0.9586792,-0.8408546,-38.84827,-33.93147,34.18775,33.84472,10,0.0.0.0,10.139.104.221,1,0
2013-11-11 16:47:05.351,273,27.3,52.17017,4.457901,0,0.4725811,265.5204,14.80737,10,1384184792,-0.04356384,-0.3982391,-0.9721832,-1.391464,-39.50631,-34.16114,35.25127,34.90825,10,0.0.0.0,10.139.104.221,1,0
2013-11-11 16:47:05.600,274,27.4,52.17017,4.457901,0,0.4725811,265.5204,14.80737,10,1384184792,-0.06384277,-0.3841858,-0.9752502,-2.437618,-38.35474,-34.79273,39.7863,39.44327,10,0.0.0.0,10.139.104.221,1,0
2013-11-11 16:47:05.851,275,27.5,52.17017,4.457901,0,0.4725811,265.5204,14.80737,10,1384184792,-0.06990051,-0.3712463,-0.9616852,-1.336403,-36.70965,-36.97462,38.31899,37.97596,10,0.0.0.0,10.139.104.221,1,0
2013-11-11 16:47:06.221,276,27.6,52.17017,4.457901,0,0.4725811,265.5204,14.80737,10,1384184792,-0.06990051,-0.3712463,-0.9616852,-4.199566,-36.05161,-37.54881,51.21043,50.8674,10,0.0.0.0,10.139.104.221,1,0
2013-11-11 16:47:06.675,277,27.7,52.17017,4.457901,0,0.4725811,265.5204,14.80737,10,1384184792,-0.07945251,-0.3719025,-0.9461365,-3.81414,-36.32579,-37.26171,50.47013,50.12711,10,145.118.81.177,10.139.104.221,1,0
2013-11-11 16:47:07.770,278,27.8,52.17017,4.457901,0,0.4725811,265.5204,14.80737,10,1384184792,-0.0785675,-0.3755341,-0.9149628,-2.272438,-36.43547,-37.14688,45.27929,44.93626,10,145.118.81.177,10.139.104.221,1,0
2013-11-11 16:47:08.584,279,27.9,52.17017,4.457884,0,0.6073431,254.2088,14.73909,10,1384184793,-0.05335999,-0.3947296,-0.927475,-2.052193,-36.10645,-36.22819,47.07699,46.73396,10,145.118.81.177,10.139.104.221,1,0
2013-11-11 16:47:09.169,280,28,52.17017,4.457884,0,0.6073431,254.2088,14.73909,10,1384184793,-0.04603577,-0.410141,-0.9955444,-1.116161,-35.50325,-37.31914,46.6487,46.30567,10,145.118.81.177,10.139.104.221,1,0
2013-11-11 16:47:09.455,281,28.1,52.17017,4.457884,0,0.6073431,254.2088,14.73909,10,1384184793,-0.04603577,-0.410141,-0.9955444,-0.9509735,-34.90004,-37.37655,44.95564,44.61261,10,145.118.81.177,10.139.104.221,1,0
2013-11-11 16:47:09.909,282,28.2,52.17017,4.457884,0,0.6073431,254.2088,14.73909,10,1384184793,-0.05285645,-0.4022217,-1.000473,-1.336403,-36.70964,-36.63012,44.15998,43.81695,10,145.118.81.177,10.139.104.221,1,0
2013-11-11 16:47:10.333,283,28.3,52.17017,4.457847,0,0.6956402,264.2171,14.56258,10,1384184794,-0.04870605,-0.382431,-0.9635162,-4.970421,-36.38063,-36.17078,48.67481,48.33178,10,145.118.81.177,10.139.104.221,1,0
2013-11-11 16:47:10.774,284,28.4,52.17017,4.457847,0,0.6956402,264.2171,14.56258,10,1384184794,-0.02903748,-0.3738403,-0.9429932,-4.419811,-36.16128,-36.74496,46.15947,45.81644,10,145.118.81.177,10.139.104.221,1,0
2013-11-11 16:47:11.148,285,28.5,52.17017,4.457847,0,0.6956402,264.2171,14.56258,10,1384184794,-0.03274536,-0.3757935,-0.951767,-3.098351,-36.27095,-36.51528,43.34998,43.00695,10,145.118.81.177,10.139.104.221,1,0
2013-11-11 16:47:11.543,286,28.6,52.17017,4.457847,0,0.6956402,264.2171,14.56258,10,1384184794,-0.05754089,-0.3667603,-0.9811096,-5.576088,-38.19024,-34.62048,45.69513,45.3521,10,145.118.81.177,10.139.104.221,1,0
2013-11-11 16:47:11.726,287,28.7,52.17017,4.457847,0,0.6956402,264.2171,14.56258,10,1384184794,-0.05754089,-0.3667603,-0.9811096,-7.338032,-38.84827,-33.81663,46.94915,46.60612,10,145.118.81.177,10.139.104.221,1,0
2013-11-11 16:47:11.934,288,28.8,52.17017,4.457847,0,0.6956402,264.2171,14.56258,10,1384184794,-0.05377197,-0.3621063,-0.9976501,-7.778522,-39.61598,-33.35728,48.4754,48.13237,10,145.118.81.177,10.139.104.221,1,0
2013-11-11 16:47:12.276,289,28.9,52.17017,4.457847,0,0.6956402,264.2171,14.56258,10,1384184794,-0.04138184,-0.3652039,-0.9888458,-8.769619,-39.945,-32.55343,54.3106,53.96757,10,145.118.81.177,10.139.104.221,1,0
2013-11-11 16:47:12.573,290,29,52.17017,4.457847,0,0.6956402,264.2171,14.56258,10,1384184794,-0.0562439,-0.3805389,-0.9869232,-8.274075,-40.32886,-31.11798,53.93407,53.59105,10,145.118.81.177,10.139.104.221,1,0
2013-11-11 16:47:12.686,291,29.1,52.17017,4.457847,0,0.6956402,264.2171,14.56258,10,1384184794,-0.05784607,-0.3671265,-0.9119873,-8.274075,-41.64494,-29.28059,55.20441,54.86139,10,145.118.81.177,10.139.104.221,1,0
2013-11-11 16:47:12.832,292,29.2,52.17017,4.457847,0,0.6956402,264.2171,14.56258,10,1384184794,-0.05784607,-0.3671265,-0.9119873,-8.49432,-43.18036,-28.47674,63.06113,62.7181,10,145.118.81.177,10.139.104.221,1,0
2013-11-11 16:47:12.962,293,29.3,52.17017,4.457847,0,0.6956402,264.2171,14.56258,10,1384184794,-0.07247925,-0.3567657,-0.8799438,-7.338032,-42.24813,-28.76383,63.91056,63.56753,10,145.118.81.177,10.139.104.221,1,0
2013-11-11 16:47:13.191,294,29.4,52.17017,4.457847,0,0.6956402,264.2171,14.56258,10,1384184794,-0.09489441,-0.3385162,-0.8537903,-7.007671,-41.04173,-29.68253,65.17976,64.83674,10,145.118.81.177,10.139.104.221,1,0
2013-11-11 16:47:13.335,295,29.5,52.17017,4.457802,0,0.7758996,280.9859,14.37618,10,1384184795,-0.09980774,-0.3343658,-0.8392029,-7.117794,-40.82239,-29.79736,65.5587,65.21568,10,145.118.81.177,10.139.104.221,1,0
2013-11-11 16:47:13.461,296,29.6,52.17017,4.457802,0,0.7758996,280.9859,14.37618,10,1384184795,-0.1038208,-0.3703156,-0.8245392,-5.906452,-41.80944,-28.87867,67.52386,67.18084,10,145.118.81.177,10.139.104.221,1,0
2013-11-11 16:47:13.582,297,29.7,52.17017,4.457802,0,0.7758996,280.9859,14.37618,10,1384184795,-0.1041718,-0.396698,-0.8244629,-5.300785,-43.61904,-26.29485,70.30859,69.96556,10,145.118.81.177,10.139.104.221,1,0
2013-11-11 16:47:13.801,298,29.8,52.17017,4.457802,0,0.7758996,280.9859,14.37618,10,1384184795,-0.07963562,-0.4612122,-0.8816528,-5.300785,-43.07068,-27.90256,67.64858,67.30556,10,145.118.81.177,10.139.104.221,1,0
2013-11-11 16:47:13.921,299,29.9,52.17017,4.457802,0,0.7758996,280.9859,14.37618,10,1384184795,-0.07963562,-0.4612122,-0.8816528,-4.089443,-42.08363,-29.05092,66.57327,66.23025,10,145.118.81.177,10.139.104.221,1,0
2013-11-11 16:47:14.600,300,30,52.17017,4.457802,0,0.7758996,280.9859,14.37618,10,1384184795,-0.05830383,-0.472702,-0.9175568,-1.501583,-37.86121,-34.27598,57.72351,57.38049,10,145.118.81.177,10.139.104.221,1,0
2013-11-11 16:47:14.911,301,30.1,52.17017,4.457802,0,0.7758996,280.9859,14.37618,10,1384184795,-0.04124451,-0.4663849,-0.9360046,-3.428715,-38.46442,-33.29987,47.0097,46.66667,10,145.118.81.177,10.139.104.221,1,0
2013-11-11 16:47:15.216,302,30.2,52.17017,4.457802,0,0.7758996,280.9859,14.37618,10,1384184795,-0.04466248,-0.4390411,-0.945816,-3.538837,-38.68377,-32.49601,43.25815,42.91512,10,145.118.81.177,10.139.104.221,1,0
2013-11-11 16:47:15.370,303,30.3,52.17017,4.457766,0,0.86803,277.9907,14.16695,10,1384184796,-0.05117798,-0.4018097,-0.9508209,-2.878105,-38.35474,-32.72569,39.95868,39.61565,10,145.118.81.177,10.139.104.221,1,0
2013-11-11 16:47:15.519,304,30.4,52.17017,4.457766,0,0.86803,277.9907,14.16695,10,1384184796,-0.05432129,-0.3517151,-0.9305115,-0.2351837,-37.47736,-33.18503,34.05798,33.71495,10,145.118.81.177,10.139.104.221,1,0
2013-11-11 16:47:15.736,305,30.5,52.17017,4.457766,0,0.86803,277.9907,14.16695,10,1384184796,-0.07991028,-0.3177795,-0.9073334,2.462795,-36.21612,-33.01277,30.24693,29.9039,10,145.118.81.177,10.139.104.221,1,0
2013-11-11 16:47:15.888,306,30.6,52.17017,4.457766,0,0.86803,277.9907,14.16695,10,1384184796,-0.08213806,-0.3049164,-0.8947296,3.23365,-36.65481,-33.47212,36.35243,36.0094,10,145.118.81.177,10.139.104.221,1,0
2013-11-11 16:47:16.204,307,30.7,52.17017,4.457766,0,0.86803,277.9907,14.16695,10,1384184796,-0.05825806,-0.310257,-0.8907166,2.242554,-34.79037,-35.76884,36.56672,36.22369,10,145.118.81.177,10.139.104.221,1,0
2013-11-11 16:47:16.353,308,30.8,52.17017,4.457766,0,0.86803,277.9907,14.16695,10,1384184796,-0.05825806,-0.310257,-0.8907166,1.581825,-35.00972,-36.34303,34.89516,34.55214,10,145.118.81.177,10.139.104.221,1,0
2013-11-11 16:47:16.518,309,30.9,52.17017,4.457766,0,0.86803,277.9907,14.16695,10,1384184796,-0.01446533,-0.3915405,-0.9224701,-0.07000351,-35.77743,-35.42434,29.22528,28.88225,10,145.118.81.177,10.139.104.221,1,0
2013-11-11 16:47:16.685,310,31,52.17017,4.457766,0,0.86803,277.9907,14.16695,10,1384184796,-0.01646423,-0.4258423,-0.9379578,-2.878105,-37.36769,-32.95535,31.74109,31.39806,10,145.118.81.177,10.139.104.221,1,0
2013-11-11 16:47:16.864,311,31.1,52.17017,4.457766,0,0.86803,277.9907,14.16695,10,1384184796,9.155273e-05,-0.4296722,-1.002136,-2.162315,-34.13234,-36.34303,33.58653,33.2435,10,145.118.81.177,10.139.104.221,1,0
2013-11-11 16:47:16.961,312,31.2,52.17017,4.457766,0,0.86803,277.9907,14.16695,10,1384184796,-0.01768494,-0.4028473,-0.9925537,1.196396,-30.56796,-39.96037,38.33601,37.99298,10,145.118.81.177,10.139.104.221,1,0
2013-11-11 16:47:17.157,313,31.3,52.17017,4.457766,0,0.86803,277.9907,14.16695,10,1384184796,-0.03407288,-0.4021301,-0.9488068,2.572918,-30.07443,-40.24746,46.38238,46.03935,10,145.118.81.177,10.139.104.221,1,0
2013-11-11 16:47:17.274,314,31.4,52.17017,4.457745,0,0.9601197,268.2517,13.98457,10,1384184797,-0.0514679,-0.4003601,-0.8972626,2.572918,-29.52607,-40.59197,47.16497,46.82195,10,145.118.81.177,10.139.104.221,1,0
2013-11-11 16:47:17.377,315,31.5,52.17017,4.457745,0,0.9601197,268.2517,13.98457,10,1384184797,-0.05378723,-0.3864136,-0.8749237,3.288708,-30.34861,-40.0752,47.90781,47.56478,10,145.118.81.177,10.139.104.221,1,0
2013-11-11 16:47:17.477,316,31.6,52.17017,4.457745,0,0.9601197,268.2517,13.98457,10,1384184797,-0.08888245,-0.3494568,-0.8634796,2.462795,-31.60986,-39.44361,49.56896,49.22593,10,145.118.81.177,10.139.104.221,1,0
2013-11-11 16:47:17.601,317,31.7,52.17017,4.457745,0,0.9601197,268.2517,13.98457,10,1384184797,-0.08888245,-0.3494568,-0.8634796,0.8109703,-32.48724,-38.1804,47.28595,46.94292,10,145.118.81.177,10.139.104.221,1,0
2013-11-11 16:47:17.741,318,31.8,52.17017,4.457745,0,0.9601197,268.2517,13.98457,10,1384184797,-0.0933075,-0.3537598,-0.9170227,-0.730732,-33.0356,-37.14688,47.68455,47.34152,10,145.118.81.177,10.139.104.221,1,0
2013-11-11 16:47:18.105,319,31.9,52.17017,4.457745,0,0.9601197,268.2517,13.98457,10,1384184797,-0.0933075,-0.3537598,-0.9170227,-2.162315,-34.90004,-37.72106,48.46803,48.125,10,145.118.81.177,10.139.104.221,1,0
2013-11-11 16:47:18.318,320,32,52.17017,4.457745,0,0.9601197,268.2517,13.98457,10,1384184797,-0.09370422,-0.3744507,-0.9374084,-1.116161,-35.39357,-37.08946,47.41703,47.074,10,145.118.81.177,10.139.104.221,1,0
2013-11-11 16:47:18.468,321,32.1,52.17017,4.457745,0,0.9601197,268.2517,13.98457,10,1384184797,-0.08369446,-0.3961945,-0.9402618,-1.666767,-36.70965,-36.40044,49.02902,48.68599,10,145.118.81.177,10.139.104.221,1,0
2013-11-11 16:47:18.566,322,32.2,52.17017,4.457745,0,0.9601197,268.2517,13.98457,10,1384184797,-0.07785034,-0.4021912,-0.9431152,-2.657864,-36.70965,-36.97462,49.77225,49.42922,10,145.118.81.177,10.139.104.221,1,0
2013-11-11 16:47:18.637,323,32.3,52.17017,4.457745,0,0.9601197,268.2517,13.98457,10,1384184797,-0.07131958,-0.393631,-0.9548187,-3.483776,-36.87416,-36.5727,50.1051,49.76207,10,145.118.81.177,10.139.104.221,1,0
2013-11-11 16:47:18.734,324,32.4,52.17017,4.457745,0,0.9601197,268.2517,13.98457,10,1384184797,-0.08561707,-0.3923645,-0.9529114,-5.465965,-37.42252,-36.11335,51.37174,51.02871,10,145.118.81.177,10.139.104.221,1,0
2013-11-11 16:47:18.895,325,32.5,52.17017,4.457745,0,0.9601197,268.2517,13.98457,10,1384184797,-0.09812927,-0.3909149,-0.9295959,-7.448162,-36.98383,-36.80237,53.97589,53.63286,10,145.118.81.177,10.139.104.221,1,0
2013-11-11 16:47:19.159,326,32.6,52.17017,4.457718,0,1.084772,269.3446,9.5,5,1384184798,-0.08222961,-0.3860168,-0.8925629,-10.80687,-37.36769,-35.36691,67.1198,66.77678,10,145.118.81.177,10.139.104.221,1,0
2013-11-11 16:47:19.304,327,32.7,52.17017,4.457718,0,1.084772,269.3446,9.5,5,1384184798,-0.0625,-0.3803101,-0.8681488,-10.47651,-37.03867,-35.25208,73.8093,73.46627,10,145.118.81.177,10.139.104.221,1,0
2013-11-11 16:47:19.444,328,32.8,52.17017,4.457718,0,1.084772,269.3446,9.5,5,1384184798,-0.03962708,-0.3864899,-0.8514862,-8.38419,-38.35474,-34.90757,74.23721,73.89419,10,145.118.81.177,10.139.104.221,1,0
2013-11-11 16:47:19.539,329,32.9,52.17017,4.457718,0,1.084772,269.3446,9.5,5,1384184798,-0.03962708,-0.3864899,-0.8514862,-7.172855,-38.68377,-33.98888,72.95605,72.61303,10,145.118.81.177,10.139.104.221,1,0
2013-11-11 16:47:19.674,330,33,52.17017,4.457718,0,1.084772,269.3446,9.5,5,1384184798,-0.02311707,-0.3986511,-0.8630829,-4.695118,-39.06762,-34.39081,64.73352,64.3905,10,145.118.81.177,10.139.104.221,1,0
2013-11-11 16:47:19.817,331,33.1,52.17017,4.457718,0,1.084772,269.3446,9.5,5,1384184798,-0.0009002686,-0.4090576,-0.886322,-5.190662,-38.24507,-33.98888,62.50253,62.1595,10,145.118.81.177,10.139.104.221,1,0
2013-11-11 16:47:19.938,332,33.2,52.17017,4.457718,0,1.084772,269.3446,9.5,5,1384184798,0.00604248,-0.4107361,-0.9466705,-3.318596,-37.58703,-36.05593,64.32088,63.97785,10,145.118.81.177,10.139.104.221,1,0
2013-11-11 16:47:20.175,333,33.3,52.17017,4.457718,0,1.084772,269.3446,9.5,5,1384184798,-0.01879883,-0.4016418,-0.9691925,-1.887009,-35.50324,-36.74496,64.38747,64.04444,10,145.118.81.177,10.139.104.221,1,0
2013-11-11 16:47:20.285,334,33.4,52.17017,4.457718,0,1.084772,269.3446,9.5,5,1384184798,-0.06190491,-0.3842926,-0.9820557,-1.556644,-35.50324,-36.17078,64.51038,64.16736,10,145.118.81.177,10.139.104.221,1,0
2013-11-11 16:47:20.463,335,33.5,52.17017,4.457718,0,1.084772,269.3446,9.5,5,1384184798,-0.08398438,-0.3741455,-0.9889984,-1.116161,-36.70964,-36.51528,61.17363,60.8306,10,145.118.81.177,10.139.104.221,1,0
2013-11-11 16:47:20.562,336,33.6,52.17017,4.457718,0,1.084772,269.3446,9.5,5,1384184798,-0.08398438,-0.3741455,-0.9889984,-1.391464,-38.7386,-34.39081,59.5406,59.19757,10,145.118.81.177,10.139.104.221,1,0
2013-11-11 16:47:20.629,337,33.7,52.17017,4.457718,0,1.084772,269.3446,9.5,5,1384184798,-0.06417847,-0.361084,-1.016205,-3.318596,-39.78049,-32.49601,61.19468,60.85165,10,145.118.81.177,10.139.104.221,1,0
2013-11-11 16:47:20.730,338,33.8,52.17017,4.457689,0,1.189898,270.3629,13.69434,10,1384184799,-0.009811401,-0.4128876,-1.004166,-7.007671,-41.04173,-32.09408,61.53072,61.18769,10,145.118.81.177,10.139.104.221,1,0
2013-11-11 16:47:20.854,339,33.9,52.17017,4.457689,0,1.189898,270.3629,13.69434,10,1384184799,-0.01716614,-0.4291229,-0.9778748,-7.888645,-41.48042,-31.74957,60.09081,59.74778,10,145.118.81.177,10.139.104.221,1,0
2013-11-11 16:47:20.981,340,34,52.17017,4.457689,0,1.189898,270.3629,13.69434,10,1384184799,-0.01716614,-0.4291229,-0.9778748,-7.448162,-41.5901,-31.74957,60.81306,60.47004,10,145.118.81.177,10.139.104.221,1,0
2013-11-11 16:47:21.167,341,34.1,52.17017,4.457689,0,1.189898,270.3629,13.69434,10,1384184799,-0.04772949,-0.423584,-0.9741211,-7.117794,-41.5901,-30.48637,67.0515,66.70847,10,145.118.81.177,10.139.104.221,1,0
2013-11-11 16:47:21.254,342,34.2,52.17017,4.457689,0,1.189898,270.3629,13.69434,10,1384184799,-0.08486938,-0.4208832,-0.9732819,-6.62225,-40.32886,-32.49601,66.96414,66.62112,10,145.118.81.177,10.139.104.221,1,0
2013-11-11 16:47:21.352,343,34.3,52.17017,4.457689,0,1.189898,270.3629,13.69434,10,1384184799,-0.1111298,-0.3950043,-0.9792938,-3.208473,-37.47736,-35.82626,64.03674,63.69372,10,145.118.81.177,10.139.104.221,1,0
2013-11-11 16:47:21.437,344,34.4,52.17017,4.457689,0,1.189898,270.3629,13.69434,10,1384184799,-0.1278839,-0.333725,-0.9395905,-0.5104866,-36.32579,-37.14688,62.10623,61.7632,10,145.118.81.177,10.139.104.221,1,0
2013-11-11 16:47:21.570,345,34.5,52.17017,4.457689,0,1.189898,270.3629,13.69434,10,1384184799,-0.1806641,-0.3206177,-0.901886,3.453896,-34.90004,-37.60622,65.53111,65.18809,10,145.118.81.177,10.139.104.221,1,0
2013-11-11 16:47:21.705,346,34.6,52.17017,4.457689,0,1.189898,270.3629,13.69434,10,1384184799,-0.1818695,-0.3126068,-0.8843842,2.627983,-34.51619,-38.69717,68.21662,67.8736,10,145.118.81.177,10.139.104.221,1,0
2013-11-11 16:47:21.847,347,34.7,52.17017,4.457689,0,1.189898,270.3629,13.69434,10,1384184799,-0.1818695,-0.3126068,-0.8843842,2.683041,-36.43547,-36.11335,55.44918,55.10616,10,145.118.81.177,10.139.104.221,1,0
2013-11-11 16:47:21.954,348,34.8,52.17017,4.457689,0,1.189898,270.3629,13.69434,10,1384184799,-0.1539307,-0.2830505,-0.9018555,1.196396,-39.56115,-33.29987,53.27079,52.92776,10,145.118.81.177,10.139.104.221,1,0
2013-11-11 16:47:22.325,349,34.9,52.17017,4.457644,1.352718,1.344288,278.4709,11.83672,10,1384184800,-0.05465698,-0.2986755,-0.90242,-3.64896,-40.65787,-31.80699,58.83604,58.49301,10,145.118.81.177,10.139.104.221,1,0
2013-11-11 16:47:22.475,350,35,52.17017,4.457644,1.352718,1.344288,278.4709,11.83672,10,1384184800,-0.03347778,-0.4024353,-0.8718872,-6.512119,-39.56115,-32.84052,62.29916,61.95613,10,145.118.81.177,10.139.104.221,1,0
2013-11-11 16:47:22.549,351,35.1,52.17017,4.457644,1.352718,1.344288,278.4709,11.83672,10,1384184800,-0.05804443,-0.4489594,-0.8825531,-7.943707,-41.09657,-31.92183,64.40434,64.06131,10,145.118.81.177,10.139.104.221,1,0
2013-11-11 16:47:22.647,352,35.2,52.17017,4.457644,1.352718,1.344288,278.4709,11.83672,10,1384184800,-0.06436157,-0.4597473,-0.9020233,-7.943707,-40.5482,-32.61085,65.32163,64.97861,10,145.118.81.177,10.139.104.221,1,0
2013-11-11 16:47:22.754,353,35.3,52.17017,4.457644,1.352718,1.344288,278.4709,11.83672,10,1384184800,-0.04212952,-0.4701996,-0.929184,-3.043289,-37.64186,-37.03204,67.38545,67.04243,10,145.118.81.177,10.139.104.221,1,0
2013-11-11 16:47:22.858,354,35.4,52.17017,4.457644,1.352718,1.344288,278.4709,11.83672,10,1384184800,-0.05181885,-0.4603577,-0.940918,-1.501583,-36.98383,-36.80237,69.90714,69.56412,10,145.118.81.177,10.139.104.221,1,0
2013-11-11 16:47:22.937,355,35.5,52.17017,4.457644,1.352718,1.344288,278.4709,11.83672,10,1384184800,-0.09561157,-0.4154968,-0.9421844,-0.9509735,-37.31285,-36.5727,72.07722,71.73419,10,145.118.81.177,10.139.104.221,1,0
2013-11-11 16:47:23.148,356,35.6,52.17017,4.457644,1.352718,1.344288,278.4709,11.83672,10,1384184800,-0.1170044,-0.3552856,-0.9219971,0.2603607,-37.97089,-35.07983,72.84876,72.50574,10,145.118.81.177,10.139.104.221,1,0
2013-11-11 16:47:23.249,357,35.7,52.17017,4.457644,1.352718,1.344288,278.4709,11.83672,10,1384184800,-0.1170044,-0.3552856,-0.9219971,1.416641,-39.78049,-33.75921,65.83363,65.4906,10,145.118.81.177,10.139.104.221,1,0
2013-11-11 16:47:23.346,358,35.8,52.17017,4.457644,1.352718,1.344288,278.4709,11.83672,10,1384184800,-0.152298,-0.3114777,-0.9095764,0.5907288,-41.91911,-31.40507,62.85876,62.51574,10,145.118.81.177,10.139.104.221,1,0
2013-11-11 16:47:23.442,359,35.9,52.17017,4.457644,1.352718,1.344288,278.4709,11.83672,10,1384184800,-0.1790924,-0.299408,-0.9301605,0.5356674,-42.85133,-30.08444,62.80788,62.46485,10,145.118.81.177,10.139.104.221,1,0
2013-11-11 16:47:23.538,360,36,52.17017,4.457644,1.352718,1.344288,278.4709,11.83672,10,1384184800,-0.1044312,-0.3130035,-0.9736481,-0.01494217,-42.63199,-29.39543,62.16462,61.82159,10,145.118.81.177,10.139.104.221,1,0
2013-11-11 16:47:23.668,361,36.1,52.17018,4.457592,0,1.52579,285.9252,11.79836,10,1384184801,-0.0254364,-0.351059,-1.0112,-0.6756706,-42.63199,-30.08444,60.0639,59.72087,10,145.118.81.177,10.139.104.221,1,0
2013-11-11 16:47:23.702,362,36.2,52.17018,4.457592,0,1.52579,285.9252,11.79836,10,1384184801,-0.0163269,-0.3765869,-1.004272,-0.6206093,-42.46748,-31.06055,57.69689,57.35386,10,145.118.81.177,10.139.104.221,1,0
2013-11-11 16:47:23.849,363,36.3,52.17018,4.457592,0,1.52579,285.9252,11.79836,10,1384184801,-0.02619934,-0.4037476,-1.001343,-0.4003639,-42.35781,-31.17539,55.82785,55.48482,10,145.118.81.177,10.139.104.221,1,0
2013-11-11 16:47:23.950,364,36.4,52.17018,4.457592,0,1.52579,285.9252,11.79836,10,1384184801,-0.02619934,-0.4037476,-1.001343,-1.501583,-40.38369,-32.89793,55.7806,55.43757,10,145.118.81.177,10.139.104.221,1,0
2013-11-11 16:47:24.154,365,36.5,52.17018,4.457592,0,1.52579,285.9252,11.79836,10,1384184801,-0.0604248,-0.404953,-0.9946594,-1.281342,-38.08056,-35.88368,57.98829,57.64526,10,145.118.81.177,10.139.104.221,1,0
2013-11-11 16:47:24.285,366,36.6,52.17018,4.457592,0,1.52579,285.9252,11.79836,10,1384184801,-0.07884216,-0.3955231,-0.9655609,0.2053032,-37.36769,-36.28561,61.23082,60.88779,10,145.118.81.177,10.139.104.221,1,0
2013-11-11 16:47:24.438,367,36.7,52.17018,4.457592,0,1.52579,285.9252,11.79836,10,1384184801,-0.05682373,-0.4093323,-0.9303589,0.5356674,-39.89016,-34.21855,62.89734,62.55431,10,145.118.81.177,10.139.104.221,1,0
2013-11-11 16:47:24.521,368,36.8,52.17018,4.457592,0,1.52579,285.9252,11.79836,10,1384184801,-0.04188538,-0.4043884,-0.8913727,-1.061096,-41.5901,-32.09408,60.68261,60.33958,10,145.118.81.177,10.139.104.221,1,0
2013-11-11 16:47:24.629,369,36.9,52.17018,4.457592,0,1.52579,285.9252,11.79836,10,1384184801,-0.04042053,-0.3857727,-0.8836212,-2.437618,-42.19329,-30.77346,57.60355,57.26052,10,145.118.81.177,10.139.104.221,1,0
2013-11-11 16:47:24.725,370,37,52.17018,4.457592,0,1.52579,285.9252,11.79836,10,1384184801,-0.05644226,-0.3484344,-0.895462,-2.437618,-42.41264,-30.65862,59.24324,58.90021,10,145.118.81.177,10.139.104.221,1,0
2013-11-11 16:47:25.231,371,37.1,52.17018,4.457592,0,1.52579,285.9252,11.79836,10,1384184801,-0.07376099,-0.3374481,-0.9072723,-2.272438,-43.23519,-29.91219,60.57518,60.23215,10,145.118.81.177,10.139.104.221,1,0
2013-11-11 16:47:25.634,372,37.2,52.17019,4.457528,0,1.708317,285.1821,11.85997,10,1384184802,-0.1113739,-0.3561859,-0.9024811,-1.006039,-39.67082,-34.10371,56.56405,56.22102,10,145.118.81.177,10.139.104.221,1,0
2013-11-11 16:47:26.145,373,37.3,52.17019,4.457528,0,1.708317,285.1821,11.85997,10,1384184802,-0.1113739,-0.3561859,-0.9024811,0.7008514,-38.7386,-34.27598,61.21958,60.87655,10,0.0.0.0,10.139.104.221,1,0
2013-11-11 16:47:26.691,374,37.4,52.17019,4.457528,0,1.708317,285.1821,11.85997,10,1384184802,-0.1847229,-0.4003601,-0.868576,0.3704834,-40.49337,-31.40507,49.80085,49.45782,10,0.0.0.0,10.139.104.221,1,0
2013-11-11 16:47:27.186,375,37.5,52.17019,4.457528,0,1.708317,285.1821,11.85997,10,1384184802,-0.1847229,-0.4003601,-0.868576,0.3154259,-40.32886,-33.64437,52.44675,52.10372,10,0.0.0.0,10.139.104.221,1,0
2013-11-11 16:47:28.155,376,37.6,52.17019,4.457482,0,1.892106,289.3476,11.7736,10,1384184803,-0.1885376,-0.3946533,-0.8939209,6.041752,-37.91605,-35.36691,52.321,51.97797,10,0.0.0.0,10.139.104.221,1,0
2013-11-11 16:47:28.757,377,37.7,52.17019,4.457482,0,1.892106,289.3476,11.7736,10,1384184803,-0.1750946,-0.3904877,-0.9425659,-4.254627,-41.15141,-32.32375,51.96358,51.62056,10,0.0.0.0,10.139.104.221,1,0
2013-11-11 16:47:29.096,378,37.8,52.17019,4.457482,0,1.892106,289.3476,11.7736,10,1384184803,-0.1304321,-0.3800049,-0.9842834,-4.640053,-42.41264,-31.11798,60.28329,59.94027,10,0.0.0.0,10.139.104.221,1,0
2013-11-11 16:47:29.518,379,37.9,52.17019,4.457482,0,1.892106,289.3476,11.7736,10,1384184803,-0.07484436,-0.4006348,-0.9810944,0.5356674,-38.35474,-34.79273,66.62241,66.27938,10,0.0.0.0,10.139.104.221,1,0
2013-11-11 16:47:29.927,380,38,52.17019,4.457482,0,1.892106,289.3476,11.7736,10,1384184803,-0.054245,-0.4424591,-0.912735,0.7008514,-39.61598,-35.42434,64.60851,64.26548,10,0.0.0.0,10.139.104.221,1,0
2013-11-11 16:47:30.158,381,38.1,52.1702,4.457441,0,2.051865,291.0189,11.70385,10,1384184804,-0.0541687,-0.4519348,-0.8796234,2.242554,-39.39664,-35.07983,60.44281,60.09978,10,0.0.0.0,10.139.104.221,1,0
2013-11-11 16:47:30.474,382,38.2,52.1702,4.457441,0,2.051865,291.0189,11.70385,10,1384184804,-0.04957581,-0.4451599,-0.8776855,-0.5655518,-42.1933,-30.65862,53.85897,53.51594,10,0.0.0.0,10.139.104.221,1,0
2013-11-11 16:47:30.853,383,38.3,52.1702,4.457441,0,2.051865,291.0189,11.70385,10,1384184804,-0.06391907,-0.4372711,-0.9020844,-0.1801262,-41.04173,-34.27598,50.5603,50.21727,10,0.0.0.0,10.139.104.221,1,0
2013-11-11 16:47:31.217,384,38.4,52.1702,4.457441,0,2.051865,291.0189,11.70385,10,1384184804,-0.06391907,-0.4372711,-0.9020844,1.636883,-39.12246,-35.82626,56.98659,56.64356,10,0.0.0.0,10.139.104.221,1,0
2013-11-11 16:47:31.384,385,38.5,52.1702,4.457441,0,2.051865,291.0189,11.70385,10,1384184804,-0.08059692,-0.3789825,-0.8682404,1.416641,-38.02573,-36.74496,60.78155,60.43852,10,0.0.0.0,10.139.104.221,1,0
2013-11-11 16:47:31.638,386,38.6,52.1702,4.457441,0,2.051865,291.0189,11.70385,10,1384184804,-0.09301758,-0.3758392,-0.8721771,2.407738,-38.02573,-36.28561,57.09723,56.7542,10,0.0.0.0,10.139.104.221,1,0
2013-11-11 16:47:31.951,387,38.7,52.1702,4.457441,0,2.051865,291.0189,11.70385,10,1384184804,-0.1031494,-0.3893738,-0.8780518,2.738102,-39.23213,-34.90757,52.90772,52.56469,10,0.0.0.0,10.139.104.221,1,0
2013-11-11 16:47:32.305,388,38.8,52.1702,4.457396,0.245636,2.195954,286.4909,11.62013,10,1384184805,-0.07814026,-0.3988037,-0.8934784,-0.5655518,-40.87722,-32.95535,54.07998,53.73695,10,0.0.0.0,10.139.104.221,1,0
2013-11-11 16:47:32.498,389,38.9,52.1702,4.457396,0.245636,2.195954,286.4909,11.62013,10,1384184805,-0.08166504,-0.4039459,-0.9304657,-0.6206093,-41.48042,-33.01277,50.07913,49.7361,10,0.0.0.0,10.139.104.221,1,0
2013-11-11 16:47:32.682,390,39,52.1702,4.457396,0.245636,2.195954,286.4909,11.62013,10,1384184805,-0.1161194,-0.3822479,-0.9861603,0.5907288,-40.60303,-35.19466,51.1167,50.77367,10,0.0.0.0,10.139.104.221,1,0
2013-11-11 16:47:33.199,391,39.1,52.1702,4.457396,0.245636,2.195954,286.4909,11.62013,10,1384184805,-0.09129333,-0.3885651,-0.9782715,2.242554,-35.99677,-37.72106,55.77402,55.431,10,0.0.0.0,10.139.104.221,1,0
2013-11-11 16:47:33.343,392,39.2,52.1702,4.457396,0.245636,2.195954,286.4909,11.62013,10,1384184805,-0.08355713,-0.3992615,-0.9558105,1.581825,-35.66776,-38.1804,54.90497,54.56194,10,0.0.0.0,10.139.104.221,1,0
2013-11-11 16:47:33.899,393,39.3,52.1702,4.457396,0.245636,2.195954,286.4909,11.62013,10,1384184805,-0.08355713,-0.3992615,-0.9558105,4.004505,-38.40958,-36.22819,49.48731,49.14428,10,0.0.0.0,10.139.104.221,1,0
2013-11-11 16:47:34.331,394,39.4,52.1702,4.457396,0.245636,2.195954,286.4909,11.62013,10,1384184805,-0.09388733,-0.4161377,-0.9003143,-0.5104866,-40.93206,-33.24244,44.64139,44.29836,10,0.0.0.0,10.139.104.221,1,0
2013-11-11 16:47:34.695,395,39.5,52.1702,4.457396,0.245636,2.195954,286.4909,11.62013,10,1384184805,-0.09388733,-0.4161377,-0.9003143,-0.2902489,-40.27402,-33.7018,54.29942,53.95639,10,0.0.0.0,10.139.104.221,1,0
2013-11-11 16:47:35.394,396,39.6,52.17021,4.457337,1.637745,2.374109,281.9236,11.52821,10,1384184806,-0.09841919,-0.431488,-0.875946,4.279808,-36.81932,-36.28561,56.38792,56.04489,10,0.0.0.0,10.139.104.221,1,0
2013-11-11 16:47:36.131,397,39.7,52.17021,4.457337,1.637745,2.374109,281.9236,11.52821,10,1384184806,-0.08149719,-0.426712,-0.8525391,4.995598,-37.64187,-35.42434,54.90087,54.55784,10,0.0.0.0,10.139.104.221,1,0
2013-11-11 16:47:36.688,398,39.8,52.17021,4.457337,1.637745,2.374109,281.9236,11.52821,10,1384184806,-0.06207275,-0.4017487,-0.8593445,-0.125061,-41.7546,-32.95535,46.25241,45.90938,10,0.0.0.0,10.139.104.221,1,0
2013-11-11 16:47:37.104,399,39.9,52.17021,4.457337,1.637745,2.374109,281.9236,11.52821,10,1384184806,-0.08633423,-0.3732147,-0.8906555,0.1502419,-41.5901,-32.7831,48.26901,47.92598,10,0.0.0.0,10.139.104.221,1,0
2013-11-11 16:47:37.613,400,40,52.17021,4.457337,1.637745,2.374109,281.9236,11.52821,10,1384184806,-0.1016083,-0.3624878,-0.9286957,4.389927,-36.16128,-37.54881,53.23715,52.89412,10,0.0.0.0,10.139.104.221,1,0
2013-11-11 16:47:37.931,401,40.1,52.17021,4.457337,1.637745,2.374109,281.9236,11.52821,10,1384184806,-0.1016083,-0.3624878,-0.9286957,5.270905,-36.70964,-36.85979,52.72913,52.3861,10,0.0.0.0,10.139.104.221,1,0
2013-11-11 16:47:38.386,402,40.2,52.17021,4.457272,3.311768,2.55437,283.5214,10.45164,10,1384184807,-0.09707642,-0.3490906,-0.9501495,2.407738,-41.09657,-32.26634,43.87661,43.53358,10,0.0.0.0,10.139.104.221,1,0
2013-11-11 16:47:38.650,403,40.3,52.17021,4.457272,3.311768,2.55437,283.5214,10.45164,10,1384184807,-0.09385681,-0.3628998,-0.9569092,1.251461,-41.48042,-31.74957,44.78574,44.44271,10,0.0.0.0,10.139.104.221,1,0
2013-11-11 16:47:38.819,404,40.4,52.17021,4.457272,3.311768,2.55437,283.5214,10.45164,10,1384184807,-0.08815002,-0.3686829,-0.9335175,-0.6206093,-42.57715,-31.17539,48.45534,48.11231,10,0.0.0.0,10.139.104.221,1,0
2013-11-11 16:47:39.259,405,40.5,52.17021,4.457272,3.311768,2.55437,283.5214,10.45164,10,1384184807,-0.07743835,-0.3843079,-0.9100647,1.581825,-39.28696,-33.93147,49.32377,48.98074,10,0.0.0.0,10.139.104.221,1,0
2013-11-11 16:47:39.520,406,40.6,52.17021,4.457272,3.311768,2.55437,283.5214,10.45164,10,1384184807,-0.06021118,-0.3876343,-0.9168091,3.619076,-37.80638,-35.36691,51.39315,51.05013,10,0.0.0.0,10.139.104.221,1,0
2013-11-11 16:47:39.751,407,40.7,52.17021,4.457272,3.311768,2.55437,283.5214,10.45164,10,1384184807,-0.04849243,-0.3968658,-0.9381714,6.537304,-37.09351,-34.73532,55.87638,55.53335,10,0.0.0.0,10.139.104.221,1,0
2013-11-11 16:47:39.888,408,40.8,52.17021,4.457272,3.311768,2.55437,283.5214,10.45164,10,1384184807,-0.02828979,-0.4080048,-0.9370728,5.160782,-39.67082,-32.95535,50.57529,50.23226,10,0.0.0.0,10.139.104.221,1,0
2013-11-11 16:47:40.179,409,40.9,52.17021,4.457272,3.311768,2.55437,283.5214,10.45164,10,1384184807,-0.00567627,-0.3986664,-0.934082,0.5356674,-42.08363,-30.31412,51.79327,51.45024,10,0.0.0.0,10.139.104.221,1,0
2013-11-11 16:47:40.323,410,41,52.17022,4.457211,6.836628,2.716604,282.742,9.859703,10,1384184808,-0.009063721,-0.3713989,-0.9555817,0.4806061,-42.35781,-30.25671,52.36844,52.02541,10,0.0.0.0,10.139.104.221,1,0
2013-11-11 16:47:40.436,411,41.1,52.17022,4.457211,6.836628,2.716604,282.742,9.859703,10,1384184808,-0.009063721,-0.3713989,-0.9555817,0.7559128,-41.53526,-31.34765,51.77993,51.4369,10,0.0.0.0,10.139.104.221,1,0
2013-11-11 16:47:40.549,412,41.2,52.17022,4.457211,6.836628,2.716604,282.742,9.859703,10,1384184808,-0.01597595,-0.3576508,-0.9605255,1.747005,-41.20624,-32.03667,51.22453,50.8815,10,0.0.0.0,10.139.104.221,1,0
2013-11-11 16:47:40.646,413,41.3,52.17022,4.457211,6.836628,2.716604,282.742,9.859703,10,1384184808,-0.01805115,-0.3545074,-0.9429932,4.334866,-39.50631,-33.81663,50.39524,50.05221,10,0.0.0.0,10.139.104.221,1,0
2013-11-11 16:47:40.734,414,41.4,52.17022,4.457211,6.836628,2.716604,282.742,9.859703,10,1384184808,-0.01525879,-0.3563385,-0.9225616,4.830418,-37.03867,-36.74496,53.54549,53.20247,10,0.0.0.0,10.139.104.221,1,0
2013-11-11 16:47:40.854,415,41.5,52.17022,4.457211,6.836628,2.716604,282.742,9.859703,10,1384184808,-0.009796143,-0.3456726,-0.9216003,3.013405,-34.90004,-38.41007,55.30251,54.95948,10,0.0.0.0,10.139.104.221,1,0
2013-11-11 16:47:40.969,416,41.6,52.17022,4.457211,6.836628,2.716604,282.742,9.859703,10,1384184808,0.001602173,-0.3402252,-0.9420013,3.729198,-35.2839,-38.812,54.41275,54.06973,10,0.0.0.0,10.139.104.221,1,0
2013-11-11 16:47:41.174,417,41.7,52.17022,4.457211,6.836628,2.716604,282.742,9.859703,10,1384184808,0.001602173,-0.3402252,-0.9420013,6.20694,-37.97089,-35.42434,46.74469,46.40166,10,0.0.0.0,10.139.104.221,1,0
2013-11-11 16:47:41.267,418,41.8,52.17022,4.457211,6.836628,2.716604,282.742,9.859703,10,1384184808,0.01185608,-0.325119,-0.9770508,4.66523,-39.83533,-32.66826,44.52217,44.17915,10,0.0.0.0,10.139.104.221,1,0
2013-11-11 16:47:41.369,419,41.9,52.17022,4.457211,6.836628,2.716604,282.742,9.859703,10,1384184808,0.00680542,-0.3496246,-0.9964752,3.94944,-41.20624,-31.00314,43.62221,43.27918,10,0.0.0.0,10.139.104.221,1,0
2013-11-11 16:47:41.479,420,42,52.17022,4.457211,6.836628,2.716604,282.742,9.859703,10,1384184808,-0.003250122,-0.3689423,-0.9916077,3.619076,-41.20624,-30.65862,43.99372,43.65069,10,0.0.0.0,10.139.104.221,1,0
2013-11-11 16:47:41.600,421,42.1,52.17022,4.457211,6.836628,2.716604,282.742,9.859703,10,1384184808,-0.01171875,-0.3764038,-0.9721222,4.279808,-40.32886,-31.34765,43.35358,43.01056,10,0.0.0.0,10.139.104.221,1,0
2013-11-11 16:47:41.745,422,42.2,52.17022,4.457211,6.836628,2.716604,282.742,9.859703,10,1384184808,-0.01934814,-0.3828125,-0.940033,7.253094,-38.90311,-31.34765,49.2958,48.95277,10,0.0.0.0,10.139.104.221,1,0
2013-11-11 16:47:41.886,423,42.3,52.17022,4.457147,8.94735,2.858484,280.9282,9.910972,10,1384184809,-0.03283691,-0.3774872,-0.9235382,8.574554,-37.6967,-33.18503,52.25483,51.9118,10,0.0.0.0,10.139.104.221,1,0
2013-11-11 16:47:42.117,424,42.4,52.17022,4.457147,8.94735,2.858484,280.9282,9.910972,10,1384184809,-0.05308533,-0.3653259,-0.9187927,9.840954,-35.66776,-36.80237,55.52187,55.17884,10,0.0.0.0,10.139.104.221,1,0
2013-11-11 16:47:42.227,425,42.5,52.17022,4.457147,8.94735,2.858484,280.9282,9.910972,10,1384184809,-0.05990601,-0.359314,-0.9168701,10.77699,-35.50325,-36.40044,53.38643,53.0434,10,0.0.0.0,10.139.104.221,1,0
2013-11-11 16:47:42.343,426,42.6,52.17022,4.457147,8.94735,2.858484,280.9282,9.910972,10,1384184809,-0.05990601,-0.359314,-0.9168701,10.83205,-36.43547,-34.16114,51.04874,50.70571,10,0.0.0.0,10.139.104.221,1,0
2013-11-11 16:47:42.471,427,42.7,52.17022,4.457147,8.94735,2.858484,280.9282,9.910972,10,1384184809,-0.01325989,-0.3537445,-0.9556427,6.041752,-40.32886,-31.69216,48.33324,47.99021,10,0.0.0.0,10.139.104.221,1,0
2013-11-11 16:47:42.557,428,42.8,52.17022,4.457147,8.94735,2.858484,280.9282,9.910972,10,1384184809,-0.01325989,-0.3537445,-0.9556427,5.436085,-40.82238,-33.01277,48.05127,47.70824,10,0.0.0.0,10.139.104.221,1,0
2013-11-11 16:47:42.644,429,42.9,52.17022,4.457147,8.94735,2.858484,280.9282,9.910972,10,1384184809,-0.02220154,-0.3331757,-0.9722748,4.885475,-39.61598,-33.47212,50.21164,49.86861,10,0.0.0.0,10.139.104.221,1,0
2013-11-11 16:47:42.740,430,43,52.17022,4.457147,8.94735,2.858484,280.9282,9.910972,10,1384184809,-0.02288818,-0.3439789,-0.9790802,5.82151,-38.35474,-33.07019,54.25959,53.91656,10,0.0.0.0,10.139.104.221,1,0
2013-11-11 16:47:42.842,431,43.1,52.17022,4.457147,8.94735,2.858484,280.9282,9.910972,10,1384184809,-0.01623535,-0.345932,-0.9634857,7.748642,-35.99677,-36.22819,56.48867,56.14564,10,0.0.0.0,10.139.104.221,1,0
2013-11-11 16:47:42.937,432,43.2,52.17022,4.457147,8.94735,2.858484,280.9282,9.910972,10,1384184809,-0.01522827,-0.3470306,-0.9732208,7.968884,-34.35168,-38.29524,59.62665,59.28362,10,0.0.0.0,10.139.104.221,1,0
2013-11-11 16:47:43.138,433,43.3,52.17022,4.457147,8.94735,2.858484,280.9282,9.910972,10,1384184809,-0.02792358,-0.3302612,-0.984024,7.528397,-34.46135,-37.83589,58.10659,57.76357,10,0.0.0.0,10.139.104.221,1,0
2013-11-11 16:47:43.276,434,43.4,52.17022,4.457147,8.94735,2.858484,280.9282,9.910972,10,1384184809,-0.02792358,-0.3302612,-0.984024,8.464432,-35.06455,-36.17078,56.97057,56.62754,10,0.0.0.0,10.139.104.221,1,0
2013-11-11 16:47:43.351,435,43.5,52.17023,4.457082,9.380997,3.001365,282.5529,9.859972,10,1384184810,-0.03012085,-0.325943,-0.9431152,7.142971,-37.14834,-35.13725,55.14541,54.80238,10,0.0.0.0,10.139.104.221,1,0
2013-11-11 16:47:43.473,436,43.6,52.17023,4.457082,9.380997,3.001365,282.5529,9.859972,10,1384184810,-0.04705811,-0.3371429,-0.9227295,4.555111,-39.39664,-33.47212,51.7189,51.37587,10,0.0.0.0,10.139.104.221,1,0
2013-11-11 16:47:43.618,437,43.7,52.17023,4.457082,9.380997,3.001365,282.5529,9.859972,10,1384184810,-0.07151794,-0.3483734,-0.9218292,4.50005,-40.43853,-32.95535,50.46642,50.12339,10,0.0.0.0,10.139.104.221,1,0
2013-11-11 16:47:43.788,438,43.8,52.17023,4.457082,9.380997,3.001365,282.5529,9.859972,10,1384184810,-0.0668335,-0.3455505,-0.9227905,4.389927,-41.64494,-31.80699,53.22263,52.8796,10,0.0.0.0,10.139.104.221,1,0
2013-11-11 16:47:44.128,439,43.9,52.17023,4.457082,9.380997,3.001365,282.5529,9.859972,10,1384184810,-0.06524658,-0.3730011,-0.9304962,6.757545,-39.28696,-33.24244,58.07021,57.72718,10,0.0.0.0,10.139.104.221,1,0
2013-11-11 16:47:44.278,440,44,52.17023,4.457082,9.380997,3.001365,282.5529,9.859972,10,1384184810,-0.07661438,-0.3700256,-0.9519653,9.345406,-35.7226,-37.66364,57.76978,57.42675,10,0.0.0.0,10.139.104.221,1,0
2013-11-11 16:47:44.408,441,44.1,52.17023,4.457082,9.380997,3.001365,282.5529,9.859972,10,1384184810,-0.06724548,-0.3652802,-0.943161,8.299252,-35.00972,-38.1804,59.67076,59.32773,10,0.0.0.0,10.139.104.221,1,0
2013-11-11 16:47:44.525,442,44.2,52.17023,4.457082,9.380997,3.001365,282.5529,9.859972,10,1384184810,-0.06724548,-0.3652802,-0.943161,9.290344,-34.79037,-37.03204,59.05696,58.71394,10,0.0.0.0,10.139.104.221,1,0
2013-11-11 16:47:44.623,443,44.3,52.17023,4.457082,9.380997,3.001365,282.5529,9.859972,10,1384184810,-0.06556702,-0.3508453,-0.9675598,10.17132,-35.00972,-35.07983,59.35914,59.01611,10,0.0.0.0,10.139.104.221,1,0
2013-11-11 16:47:44.704,444,44.4,52.17023,4.457082,9.380997,3.001365,282.5529,9.859972,10,1384184810,-0.06871033,-0.3381042,-0.966629,9.896015,-36.81932,-32.95535,57.93389,57.59086,10,0.0.0.0,10.139.104.221,1,0
2013-11-11 16:47:44.813,445,44.5,52.17023,4.457082,9.380997,3.001365,282.5529,9.859972,10,1384184810,-0.042099,-0.3441772,-0.9334106,8.464432,-38.02573,-31.69216,52.43225,52.08922,10,0.0.0.0,10.139.104.221,1,0
2013-11-11 16:47:45.038,446,44.6,52.17024,4.457017,4.649563,3.106608,287.2849,9.8332,10,1384184811,-0.04049683,-0.3323975,-0.9246521,9.180222,-37.64187,-32.32375,48.84375,48.50072,10,0.0.0.0,10.139.104.221,1,0
2013-11-11 16:47:45.199,447,44.7,52.17024,4.457017,4.649563,3.106608,287.2849,9.8332,10,1384184811,-0.02503967,-0.335968,-0.9615936,11.10735,-35.83226,-33.87405,53.21499,52.87196,10,0.0.0.0,10.139.104.221,1,0
2013-11-11 16:47:45.387,448,44.8,52.17024,4.457017,4.649563,3.106608,287.2849,9.8332,10,1384184811,-0.0426178,-0.3580475,-0.9567261,9.400467,-33.25495,-35.42434,55.17117,54.82814,10,0.0.0.0,10.139.104.221,1,0
2013-11-11 16:47:45.618,449,44.9,52.17024,4.457017,4.649563,3.106608,287.2849,9.8332,10,1384184811,-0.04663086,-0.3482513,-0.9616547,7.032852,-38.46442,-32.1515,51.33899,50.99596,10,0.0.0.0,10.139.104.221,1,0
2013-11-11 16:47:45.742,450,45,52.17024,4.457017,4.649563,3.106608,287.2849,9.8332,10,1384184811,-0.03340149,-0.3464813,-0.9528351,6.20694,-40.27402,-32.09408,50.81703,50.474,10,0.0.0.0,10.139.104.221,1,0
2013-11-11 16:47:45.872,451,45.1,52.17024,4.457017,4.649563,3.106608,287.2849,9.8332,10,1384184811,-0.0355835,-0.3356323,-0.9470367,5.270905,-41.20624,-31.92183,47.56923,47.2262,10,0.0.0.0,10.139.104.221,1,0
2013-11-11 16:47:46.122,452,45.2,52.17024,4.457017,4.649563,3.106608,287.2849,9.8332,10,1384184811,-0.02818298,-0.3250732,-0.951889,5.270905,-40.21918,-34.33339,55.34016,54.99714,10,0.0.0.0,10.139.104.221,1,0
2013-11-11 16:47:46.254,453,45.3,52.17024,4.457017,4.649563,3.106608,287.2849,9.8332,10,1384184811,-0.02638245,-0.3220978,-0.9431152,8.244186,-37.47736,-38.812,55.10039,54.75736,10,0.0.0.0,10.139.104.221,1,0
2013-11-11 16:47:46.379,454,45.4,52.17025,4.456948,3.026623,3.201326,284.8526,9.871567,10,1384184812,-0.03092957,-0.3326874,-0.9372864,8.299252,-35.66776,-41.85516,55.76455,55.42152,10,0.0.0.0,10.139.104.221,1,0
2013-11-11 16:47:46.525,455,45.5,52.17025,4.456948,3.026623,3.201326,284.8526,9.871567,10,1384184812,-0.03652954,-0.3327637,-0.9577332,9.235287,-36.05161,-40.76422,55.0187,54.67567,10,0.0.0.0,10.139.104.221,1,0
2013-11-11 16:47:46.654,456,45.6,52.17025,4.456948,3.026623,3.201326,284.8526,9.871567,10,1384184812,-0.03633118,-0.340683,-0.9645386,10.3365,-36.70964,-38.00816,55.85499,55.51196,10,0.0.0.0,10.139.104.221,1,0
2013-11-11 16:47:48.264,457,45.7,52.17025,4.456948,3.026623,3.201326,284.8526,9.871567,10,1384184812,-0.03707886,-0.3541107,-0.9421082,7.363216,-40.21918,-33.18503,49.92678,49.58375,10,0.0.0.0,10.139.104.221,1,0
2013-11-11 16:47:48.716,458,45.8,52.17025,4.456948,3.026623,3.201326,284.8526,9.871567,10,1384184812,-0.03419495,-0.3570557,-0.9343262,7.803703,-33.96783,-41.22356,57.05006,56.70704,10,0.0.0.0,10.139.104.221,5,0
2013-11-11 16:47:48.870,459,45.9,52.17025,4.456948,3.026623,3.201326,284.8526,9.871567,10,1384184812,-0.0296936,-0.3435669,-0.9479523,9.785896,-34.51619,-37.31914,55.40866,55.06563,10,0.0.0.0,10.139.104.221,5,0
2013-11-11 16:47:49.051,460,46,52.17025,4.456948,3.026623,3.201326,284.8526,9.871567,10,1384184812,-0.02671814,-0.3447723,-0.9654846,9.840954,-35.66775,-35.88368,52.3047,51.96167,10,0.0.0.0,10.139.104.221,5,0
2013-11-11 16:47:49.214,461,46.1,52.17025,4.456886,5.063938,3.311465,284.0044,9.595345,10,1384184813,-0.02194214,-0.3467712,-0.9605713,7.583462,-38.57409,-33.87405,50.79125,50.44822,10,0.0.0.0,10.139.104.221,1,0
2013-11-11 16:47:49.328,462,46.2,52.17025,4.456886,5.063938,3.311465,284.0044,9.595345,10,1384184813,-0.0229187,-0.3457642,-0.9605865,7.032852,-40.10951,-33.64437,49.62433,49.2813,10,0.0.0.0,10.139.104.221,1,0
2013-11-11 16:47:49.430,463,46.3,52.17025,4.456886,5.063938,3.311465,284.0044,9.595345,10,1384184813,-0.02598572,-0.3359528,-0.9615936,8.023945,-37.6967,-35.25208,53.71439,53.37136,10,0.0.0.0,10.139.104.221,1,0
2013-11-11 16:47:49.583,464,46.4,52.17025,4.456886,5.063938,3.311465,284.0044,9.595345,10,1384184813,-0.02406311,-0.3379059,-0.9576721,10.22638,-34.62586,-37.08946,58.28865,57.94562,10,0.0.0.0,10.139.104.221,1,0
2013-11-11 16:47:49.725,465,46.5,52.17025,4.456886,5.063938,3.311465,284.0044,9.595345,10,1384184813,-0.02604675,-0.3367767,-0.9450226,9.015041,-33.52913,-39.15652,60.20299,59.85996,10,0.0.0.0,10.139.104.221,1,0
