time,timestamp,recordtime,lat,long,alt,speed,course,verticalAccuracy,horizontalAccuracy,locTimeStamp,accelerationX,accelerationY,accelerationZ,HeadingX,HeadingY,HeadingZ,TrueHeading,MagneticHeading,HeadingAccuracy,en0,pdp_ip0,DeviceOrientation,Event
2013-11-11 16:50:53.619,1,0.1,52.17021,4.457924,0,0,94.10653,9.202776,10,1384185044,-0.08789062,-0.211319,-0.9329681,15.73247,-11.7042,-44.55382,288.0369,287.6939,10,0.0.0.0,10.139.104.221,5,0
2013-11-11 16:50:53.837,2,0.2,52.17021,4.457924,0,0,94.10653,9.202776,10,1384185044,-0.09841919,-0.1128693,-0.9848633,16.77862,-11.21067,-46.33379,290.7549,290.4119,10,0.0.0.0,10.139.104.221,5,0
2013-11-11 16:50:54.188,3,0.3,52.17021,4.457924,0,0,94.10653,9.202776,10,1384185044,-0.09025574,-0.08428955,-0.8301086,17.49442,-11.37518,-45.58734,289.6847,289.3417,10,0.0.0.0,10.139.104.221,5,0
2013-11-11 16:50:54.325,4,0.4,52.17021,4.457924,0,0,94.10653,33.98267,30,1384185045,-0.105484,-0.1381989,-0.772583,17.16405,-11.37518,-46.16152,290.484,290.141,10,0.0.0.0,10.139.104.221,5,0
2013-11-11 16:50:54.505,5,0.5,52.17021,4.457924,0,0,94.10653,33.98267,30,1384185045,-0.1721954,-0.1683655,-0.7980652,17.10899,-11.32034,-45.87444,290.919,290.576,10,0.0.0.0,10.139.104.221,5,0
2013-11-11 16:50:54.601,6,0.6,52.17021,4.457924,0,0,94.10653,33.98267,30,1384185045,-0.1721954,-0.1683655,-0.7980652,15.95271,-10.82682,-46.62088,293.6753,293.3322,10,0.0.0.0,10.139.104.221,5,0
2013-11-11 16:50:54.725,7,0.7,52.17021,4.457924,0,0,94.10653,33.98267,30,1384185045,-0.3173981,-0.03909302,-0.8720093,17.21911,-11.86871,-45.18542,292.5302,292.1872,10,0.0.0.0,10.139.104.221,5,0
2013-11-11 16:50:54.824,8,0.8,52.17021,4.457924,0,0,94.10653,33.98267,30,1384185045,-0.3033905,-0.1051788,-0.9077759,17.21911,-11.86871,-44.84091,292.198,291.855,10,0.0.0.0,10.139.104.221,5,0
2013-11-11 16:50:54.924,9,0.9,52.17021,4.457924,0,0,94.10653,33.98267,30,1384185045,-0.2612,-0.1487122,-0.9824829,17.9349,-11.81387,-44.66866,290.2055,289.8625,10,0.0.0.0,10.139.104.221,5,0
2013-11-11 16:50:55.120,10,1,52.17021,4.457924,0,0,94.10653,33.98267,30,1384185045,-0.2570801,-0.1578064,-1.004837,17.60453,-12.03322,-45.01316,289.6258,289.2828,10,0.0.0.0,10.139.104.221,5,0
2013-11-11 16:50:55.265,11,1.1,52.17021,4.457924,0,0,94.10653,33.98267,30,1384185045,-0.2551117,-0.2140045,-0.9462433,17.76972,-11.75904,-45.30025,290.5152,290.1722,10,0.0.0.0,10.139.104.221,5,0
2013-11-11 16:50:55.423,12,1.2,52.17021,4.457924,0,0,94.10653,33.98267,30,1384185045,-0.2248993,-0.2262421,-1.049301,17.98996,-12.08805,-45.64477,289.4398,289.0968,10,0.0.0.0,10.139.104.221,2,0
2013-11-11 16:50:58.638,13,1.3,52.17021,4.457924,0,0,94.10653,33.98267,30,1384185045,-0.2645416,-0.1364288,-1.145111,13.75027,-9.620415,-44.55382,278.7076,278.3646,10,0.0.0.0,10.139.104.221,2,0
2013-11-11 16:50:59.279,14,1.4,52.17021,4.457924,0,0,94.10653,36.90395,30,1384185046,-0.2751312,-0.1368713,-1.110107,10.66687,-15.54276,-44.32415,258.5075,258.1645,10,0.0.0.0,10.139.104.221,1,0
2013-11-11 16:50:59.420,15,1.5,52.17021,4.457924,0,0,94.10653,36.90395,30,1384185046,-0.3210907,0.2598267,-1.544571,5.160782,-23.00051,-39.96037,248.3297,247.9866,10,0.0.0.0,10.139.104.221,1,0
2013-11-11 16:50:59.450,16,1.6,52.17021,4.457924,0,0,94.10653,36.90395,30,1384185046,-0.2044373,0.1020203,-0.9011078,10.39156,-21.41026,-39.44361,246.8858,246.5427,10,0.0.0.0,10.139.104.221,1,0
2013-11-11 16:50:59.683,17,1.7,52.17021,4.457924,0,0,94.10653,36.90395,30,1384185046,-0.0319519,-0.1046143,-1.005051,6.812607,-30.23893,-34.90757,208.806,208.463,10,0.0.0.0,10.139.104.221,1,0
2013-11-11 16:50:59.761,18,1.8,52.17021,4.457924,0,0,94.10653,36.90395,30,1384185046,-0.0319519,-0.1046143,-1.005051,6.867664,-34.68069,-32.7831,190.8252,190.4822,10,0.0.0.0,10.139.104.221,1,0
2013-11-11 16:50:59.936,19,1.9,52.17021,4.457924,0,0,94.10653,36.90395,30,1384185046,0.07931519,-0.06193542,-1.012497,8.739738,-34.242,-32.43859,188.3791,188.0361,10,0.0.0.0,10.139.104.221,1,0
2013-11-11 16:51:00.154,20,2,52.17021,4.457924,0,0,94.10653,9.5,5,1384185047,0.06817627,-0.168869,-0.7562408,9.565651,-33.63879,-32.38117,187.2708,186.9277,10,0.0.0.0,10.139.104.221,1,0
2013-11-11 16:51:00.251,21,2.1,52.17021,4.457924,0,0,94.10653,9.5,5,1384185047,-0.01115417,-0.199173,-0.7155609,14.79643,-27.55194,-35.07983,207.2785,206.9354,10,0.0.0.0,10.139.104.221,1,0
2013-11-11 16:51:00.420,22,2.2,52.17021,4.457924,0,0,94.10653,9.5,5,1384185047,0.08795166,-0.174408,-0.8953552,14.90656,-18.66843,-41.97,248.2826,247.9396,10,0.0.0.0,10.139.104.221,1,0
2013-11-11 16:51:00.464,23,2.3,52.17021,4.457924,0,0,94.10653,9.5,5,1384185048,0.03903198,-0.1052094,-1.351379,14.08064,-13.89766,-44.20931,272.2164,271.8734,10,0.0.0.0,10.139.104.221,1,0
2013-11-11 16:51:00.585,24,2.4,52.17021,4.457924,0,0,94.10653,9.5,5,1384185048,-0.148819,-0.271698,-0.8239899,18.81588,-9.620415,-42.14226,281.7963,281.4533,10,0.0.0.0,10.139.104.221,1,0
2013-11-11 16:51:00.651,25,2.5,52.17021,4.457924,0,0,94.10653,9.5,5,1384185048,-0.09649658,-0.2903748,-1.155731,18.15514,-11.7042,-42.2571,278.06,277.7169,10,0.0.0.0,10.139.104.221,1,0
2013-11-11 16:51:00.763,26,2.6,52.17021,4.457924,0,0,94.10653,9.5,5,1384185049,0.03135681,-0.215271,-0.9996643,14.1357,-23.49405,-38.29524,255.0736,254.7306,10,0.0.0.0,10.139.104.221,1,0
2013-11-11 16:51:00.851,27,2.7,52.17021,4.457924,0,0,94.10653,9.5,5,1384185049,-0.1325989,-0.3113251,-0.8491364,19.97216,-18.88778,-40.82164,269.6633,269.3203,10,0.0.0.0,10.139.104.221,1,0
2013-11-11 16:51:00.952,28,2.8,52.17021,4.457924,0,0,94.10653,11.39731,10,1384185050,0.06291199,-0.1079254,-0.945282,19.53167,-19.87484,-38.98426,269.9126,269.5695,10,0.0.0.0,10.139.104.221,1,0
2013-11-11 16:51:01.103,29,2.9,52.17021,4.457924,0,0,94.10653,11.39731,10,1384185050,0.0007629395,-0.14711,-0.8782654,17.71466,-19.16196,-39.38618,273.2754,272.9323,10,0.0.0.0,10.139.104.221,1,0
2013-11-11 16:51:01.227,30,3,52.17021,4.457924,0,0,94.10653,11.39731,10,1384185050,-0.08665466,-0.2361755,-0.8676758,17.43935,-20.31353,-40.7068,271.1281,270.785,10,0.0.0.0,10.139.104.221,1,0
2013-11-11 16:51:01.354,31,3.1,52.17021,4.457924,0,0,94.10653,12.09169,10,1384185051,-0.08779907,-0.06665039,-1.03653,20.02721,-20.91673,-39.04168,268.6229,268.2798,10,0.0.0.0,10.139.104.221,1,0
2013-11-11 16:51:01.463,32,3.2,52.17021,4.457924,0,0,94.10653,12.09169,10,1384185051,0.1025391,-0.113678,-0.8458099,14.35595,-27.44227,-37.83589,246.2327,245.8896,10,0.0.0.0,10.139.104.221,1,0
2013-11-11 16:51:01.569,33,3.3,52.17021,4.457924,0,0,94.10653,12.23413,10,1384185052,0.08436584,-0.04858398,-1.146881,8.134068,-32.87109,-39.27135,205.3764,205.0334,10,0.0.0.0,10.139.104.221,1,0
2013-11-11 16:51:01.660,34,3.4,52.17021,4.457924,0,0,94.10653,12.23413,10,1384185052,0.3222809,-0.2011414,-0.847641,11.21748,-30.7873,-39.84553,220.1015,219.7585,10,0.0.0.0,10.139.104.221,1,0
2013-11-11 16:51:01.752,35,3.5,52.17021,4.457924,0,0,94.10653,9.5,5,1384185053,0.1139984,-0.2941742,-1.006912,23.60617,-17.68137,-40.01779,273.1149,272.7719,10,0.0.0.0,10.139.104.221,1,0
2013-11-11 16:51:01.853,36,3.6,52.17021,4.457924,0,0,94.10653,9.5,5,1384185053,0.03944397,-0.146347,-1.032898,18.37539,-25.52299,-33.4147,269.7224,269.3794,10,0.0.0.0,10.139.104.221,1,0
2013-11-11 16:51:01.987,37,3.7,52.17021,4.457924,0,0,94.10653,12.14932,10,1384185054,-0.3297882,0.1451416,-0.7303925,40.4548,23.44597,-1.777298,285.9386,285.5956,10,0.0.0.0,10.139.104.221,1,0
2013-11-11 16:51:02.093,38,3.8,52.17021,4.457924,0,0,94.10653,12.14932,10,1384185054,-0.3297882,0.1451416,-0.7303925,40.78516,18.83971,4.768364,271.9393,271.5963,10,0.0.0.0,10.139.104.221,1,0
2013-11-11 16:51:02.151,39,3.9,52.17021,4.457924,0,0,94.10653,9.5,5,1384185055,-0.411499,-0.07197571,-0.9316711,28.34141,25.85879,20.84545,293.7311,293.3881,10,0.0.0.0,10.139.104.221,1,0
2013-11-11 16:51:02.351,40,4,52.17021,4.457924,0,0,94.10653,9.5,5,1384185055,-0.1613159,-0.02648926,-0.7555542,13.19967,37.7583,19.52483,324.8506,324.5075,10,0.0.0.0,10.139.104.221,1,0
2013-11-11 16:51:02.451,41,4.1,52.17021,4.457924,0,0,94.10653,9.5,5,1384185055,-0.1966095,-0.3711548,-0.9057159,1.581825,35.61967,18.08937,327.0309,326.6879,10,0.0.0.0,10.139.104.221,1,0
2013-11-11 16:51:02.550,42,4.2,52.17021,4.457924,0,0,94.10653,12.4152,10,1384185057,-0.1225586,-0.4134369,-0.8799896,-26.27897,59.74773,-17.62471,337.0088,336.6658,10,0.0.0.0,10.139.104.221,1,0
2013-11-11 16:51:02.652,43,4.3,52.17021,4.457924,0,0,94.10653,12.4152,10,1384185057,0.1105804,-0.4724274,-0.8390045,-26.99477,51.5771,-8.495224,340.8686,340.5255,10,0.0.0.0,10.139.104.221,1,0
2013-11-11 16:51:02.755,44,4.4,52.17021,4.457924,0,0,94.10653,12.4152,10,1384185057,-0.2024078,-0.3213501,-0.9233704,9.400467,51.96095,-11.65322,308.6255,308.2825,10,0.0.0.0,10.139.104.221,1,0
2013-11-11 16:51:02.851,45,4.5,52.17021,4.457924,0,0,94.10653,12.55023,10,1384185058,-0.01956177,-0.3216248,-0.9840088,20.08228,51.96095,-20.03627,318.6062,318.2632,10,0.0.0.0,10.139.104.221,1,0
2013-11-11 16:51:02.951,46,4.6,52.17021,4.457924,0,0,94.10653,12.52586,10,1384185059,0.01972961,-0.4351196,-0.9124756,13.64016,59.36387,-35.36691,327.4231,327.0801,10,0.0.0.0,10.139.104.221,1,0
2013-11-11 16:51:03.405,47,4.7,52.17021,4.457924,0,0,94.10653,12.52586,10,1384185059,0.01972961,-0.4351196,-0.9124756,13.41991,59.69289,-36.05593,328.3737,328.0307,10,0.0.0.0,10.139.104.221,1,0
2013-11-11 16:51:03.553,48,4.8,52.17021,4.457924,0,0,94.10653,12.52586,10,1384185059,-0.06695557,-0.471405,-0.9010315,9.125164,49.82233,-19.40467,295.588,295.245,11,0.0.0.0,10.139.104.221,1,0
2013-11-11 16:51:03.657,49,4.9,52.17021,4.457924,0,0,94.10653,12.52586,10,1384185059,-0.03378296,-0.4737244,-0.8677979,15.07174,48.17723,-20.89754,293.4748,293.1318,11,0.0.0.0,10.139.104.221,1,0
2013-11-11 16:51:03.923,50,5,52.17021,4.457924,0,0,94.10653,12.39158,10,1384185060,-0.0296936,-0.4780731,-0.9057312,22.11953,51.68678,-24.91681,305.0962,304.7532,11,0.0.0.0,10.139.104.221,1,0
2013-11-11 16:51:03.950,51,5.1,52.17021,4.457924,0,0,94.10653,12.39158,10,1384185060,-0.01878357,-0.4548645,-0.9106293,23.33087,57.60912,-27.55805,308.0578,307.7148,11,0.0.0.0,10.139.104.221,1,0
2013-11-11 16:51:04.096,52,5.2,52.17021,4.457924,0,0,94.10653,12.39158,10,1384185060,-0.03843689,-0.3542633,-0.8506012,10.3365,52.67383,-22.04591,314.2111,313.8681,11,0.0.0.0,10.139.104.221,1,0
2013-11-11 16:51:04.183,53,5.3,52.17014,4.457798,0,0,94.10653,12.30781,10,1384185061,-0.01121521,-0.3306732,-0.8865662,9.455528,50.04168,-19.51951,313.2147,312.8717,11,0.0.0.0,10.139.104.221,1,0
2013-11-11 16:51:04.350,54,5.4,52.17014,4.457798,0,0,94.10653,12.30781,10,1384185061,-0.1750183,-0.1253204,-1.016266,12.26363,47.68372,-22.56267,317.8072,317.4641,11,0.0.0.0,10.139.104.221,1,0
2013-11-11 16:51:04.549,55,5.5,52.17014,4.457798,0,0,94.10653,12.30781,10,1384185061,0.1441345,-0.3904419,-0.8858032,22.17459,62.59923,-32.7831,312.1198,311.7768,11,0.0.0.0,10.139.104.221,1,0
2013-11-11 16:51:04.756,56,5.6,52.17014,4.457739,0,3.968141,243.3722,12.29224,10,1384185062,-0.02061462,-0.2337189,-0.5548859,20.90819,57.93814,-35.82626,323.4489,323.1059,11,0.0.0.0,10.139.104.221,1,0
2013-11-11 16:51:05.151,57,5.7,52.17014,4.457739,0,3.968141,243.3722,12.29224,10,1384185062,-0.1399536,-0.2314148,-0.6741333,25.14788,58.87035,-38.06557,321.9105,321.5674,11,0.0.0.0,10.139.104.221,1,0
2013-11-11 16:51:05.319,58,5.8,52.17014,4.457739,0,3.968141,243.3722,12.29224,10,1384185062,0.8077545,0.9206848,-0.6529694,26.63452,61.99604,-35.13725,322.902,322.559,11,0.0.0.0,10.139.104.221,1,0
2013-11-11 16:51:05.351,59,5.9,52.17015,4.457683,0,3.896,254.249,12.31139,10,1384185063,-0.1148376,0.2454529,-0.4007263,20.96325,59.85742,-30.83089,321.9449,321.6019,11,0.0.0.0,10.139.104.221,1,0
2013-11-11 16:51:05.484,60,6,52.17015,4.457683,0,3.896,254.249,12.31139,10,1384185063,0.921051,0.2491913,0.1319427,12.594,48.45143,-18.65824,321.7523,321.4093,11,0.0.0.0,10.139.104.221,1,0
2013-11-11 16:51:05.700,61,6.1,52.17015,4.457683,0,3.896,254.249,12.31139,10,1384185063,0.1159668,-0.4736786,-1.182648,13.97052,52.56416,-28.0174,327.1241,326.7811,11,0.0.0.0,10.139.104.221,1,0
2013-11-11 16:51:05.751,62,6.2,52.17015,4.457683,0,3.896,254.249,12.31139,10,1384185063,-0.8871918,0.9618835,-0.1408081,24.10172,56.73174,-38.23782,330.6261,330.2831,11,0.0.0.0,10.139.104.221,1,0
2013-11-11 16:51:06.076,63,6.3,52.17017,4.457618,0,4.370406,264.0384,11.40754,10,1384185064,-0.7241974,0.6377258,-0.2931519,8.794796,50.59006,-21.01238,330.3417,329.9987,11,0.0.0.0,10.139.104.221,1,0
2013-11-11 16:51:06.152,64,6.4,52.17017,4.457618,0,4.370406,264.0384,11.40754,10,1384185064,-0.3790588,0.664093,-0.6190033,6.317059,51.8513,-29.10835,330.6583,330.3152,11,0.0.0.0,10.139.104.221,1,0
2013-11-11 16:51:06.318,65,6.5,52.17019,4.457542,0,4.774666,286.3796,10.83491,10,1384185065,-0.1100922,0.549057,-0.6448975,3.78426,48.01274,-21.52914,328.6676,328.3246,11,0.0.0.0,10.139.104.221,1,0
2013-11-11 16:51:06.351,66,6.6,52.17019,4.457542,0,4.774666,286.3796,10.83491,10,1384185065,0.1243134,0.6809235,-0.7874451,10.61181,52.18032,-34.50565,331.0594,330.7164,11,0.0.0.0,10.139.104.221,1,0
2013-11-11 16:51:06.572,67,6.7,52.17019,4.457542,0,4.774666,286.3796,10.83491,10,1384185065,0.005264282,0.7563934,-0.6985474,15.34704,56.56724,-40.82164,332.7881,332.4451,11,0.0.0.0,10.139.104.221,1,0
2013-11-11 16:51:06.760,68,6.8,52.17019,4.457542,0,4.774666,286.3796,10.83491,10,1384185065,0.03738403,0.5535583,-0.9052582,17.9349,60.02193,-35.25208,328.9639,328.6209,11,0.0.0.0,10.139.104.221,1,0
2013-11-11 16:51:06.855,69,6.9,52.17021,4.457469,0,4.434097,287.0064,10.38653,10,1384185066,0.08433533,0.7359924,-0.8373871,5.711388,51.2481,-20.78271,328.4289,328.0859,11,0.0.0.0,10.139.104.221,1,0
2013-11-11 16:51:06.972,70,7,52.17021,4.457469,0,4.434097,287.0064,10.38653,10,1384185066,-0.2115784,0.7690125,-0.5358582,10.72193,54.92215,-38.86943,334.4257,334.0826,11,0.0.0.0,10.139.104.221,1,0
2013-11-11 16:51:07.122,71,7.1,52.17021,4.457469,0,4.434097,287.0064,10.38653,10,1384185066,-0.2115784,0.7690125,-0.5358582,15.67741,50.86425,-41.85516,329.7601,329.4171,11,0.0.0.0,10.139.104.221,1,0
2013-11-11 16:51:07.151,72,7.2,52.17021,4.457469,0,4.434097,287.0064,10.38653,10,1384185066,-0.2115784,0.7690125,-0.5358582,16.11789,51.0836,-41.51066,327.781,327.438,11,0.0.0.0,10.139.104.221,1,0
2013-11-11 16:51:07.251,73,7.3,52.17021,4.457469,0,4.434097,287.0064,10.38653,10,1384185066,-0.249527,0.7255707,-0.3431396,6.647427,50.09654,-20.38078,319.6989,319.3558,11,0.0.0.0,10.139.104.221,1,0
2013-11-11 16:51:07.350,74,7.4,52.17022,4.45739,0,4.434097,281.5842,10.10217,10,1384185067,-0.1000977,-0.02653503,-0.6229095,19.2013,54.59314,-38.41007,328.2993,327.9563,11,0.0.0.0,10.139.104.221,1,0
2013-11-11 16:51:07.450,75,7.5,52.17022,4.45739,0,4.434097,281.5842,10.10217,10,1384185067,-0.1851501,0.6175842,-0.5791626,21.84422,54.04477,-40.47713,327.6935,327.3504,11,0.0.0.0,10.139.104.221,1,0
2013-11-11 16:51:07.555,76,7.6,52.17022,4.45739,0,4.434097,281.5842,10.10217,10,1384185067,0.07911682,0.5605011,-0.9109497,16.77862,57.66397,-35.19466,327.2526,326.9096,11,0.0.0.0,10.139.104.221,1,0
2013-11-11 16:51:07.650,77,7.7,52.17022,4.45739,0,4.434097,281.5842,10.10217,10,1384185067,0.004699707,-0.0355072,-0.6292877,9.015041,54.64796,-30.65862,326.2574,325.9144,11,0.0.0.0,10.139.104.221,1,0
2013-11-11 16:51:07.750,78,7.8,52.17022,4.45739,0,4.434097,281.5842,10.10217,10,1384185067,-0.3223572,0.8795319,-0.7721863,4.940536,50.69974,-23.19427,322.4189,322.0759,11,0.0.0.0,10.139.104.221,1,0
2013-11-11 16:51:07.855,79,7.9,52.17022,4.45739,0,4.434097,281.5842,10.10217,10,1384185067,-0.1954803,0.8006134,-0.6790009,8.023945,50.59007,-20.89754,321.3618,321.0188,11,0.0.0.0,10.139.104.221,1,0
2013-11-11 16:51:07.951,80,8,52.17022,4.45739,0,4.434097,281.5842,10.10217,10,1384185067,-0.1034088,0.7544556,-0.8313599,12.20857,51.57712,-27.55805,324.5444,324.2014,11,0.0.0.0,10.139.104.221,1,0
2013-11-11 16:51:08.062,81,8.1,52.17022,4.45739,0,4.434097,281.5842,10.10217,10,1384185067,-0.1122894,0.6188812,-0.9274139,15.18186,53.66091,-32.38117,324.9272,324.5842,11,0.0.0.0,10.139.104.221,1,0
2013-11-11 16:51:08.155,82,8.2,52.17024,4.457313,0,4.930084,284.1455,10.10256,10,1384185068,-0.07693481,0.1498413,-0.7362366,20.79807,55.52535,-36.17078,326.2614,325.9184,11,0.0.0.0,10.139.104.221,1,0
2013-11-11 16:51:08.250,83,8.3,52.17024,4.457313,0,4.930084,284.1455,10.10256,10,1384185068,-0.1049652,-0.02435303,-0.6083374,24.48714,53.27705,-38.1804,325.0446,324.7016,11,0.0.0.0,10.139.104.221,1,0
2013-11-11 16:51:08.351,84,8.400001,52.17024,4.457313,0,4.930084,284.1455,10.10256,10,1384185068,-0.09371948,-0.02429199,-0.5761719,24.43208,55.96404,-37.77848,324.5679,324.2249,11,0.0.0.0,10.139.104.221,1,0
2013-11-11 16:51:08.453,85,8.5,52.17024,4.457313,0,4.930084,284.1455,10.10256,10,1384185068,-0.2888336,1.071793,-0.9429474,18.59563,58.04783,-32.49601,326.4529,326.1099,11,0.0.0.0,10.139.104.221,1,0
2013-11-11 16:51:08.651,86,8.6,52.17024,4.457313,0,4.930084,284.1455,10.10256,10,1384185068,-0.2759094,0.9107208,-0.8957214,8.904919,51.35777,-19.28983,323.0797,322.7367,11,0.0.0.0,10.139.104.221,1,0
2013-11-11 16:51:08.754,87,8.7,52.17024,4.457313,0,4.930084,284.1455,10.10256,10,1384185068,-0.2275696,0.9026184,-0.8205719,8.739738,51.41261,-22.67751,323.8592,323.5161,11,0.0.0.0,10.139.104.221,1,0
2013-11-11 16:51:08.850,88,8.8,52.17024,4.457313,0,4.930084,284.1455,10.10256,10,1384185068,-0.2233124,0.8232574,-0.9420319,9.840954,54.59313,-29.33801,327.5449,327.2019,11,0.0.0.0,10.139.104.221,1,0
2013-11-11 16:51:08.951,89,8.900001,52.17024,4.457313,0,4.930084,284.1455,10.10256,10,1384185068,0.05297852,-0.2583008,-0.7346497,14.52113,56.73174,-36.85979,329.3262,328.9832,11,0.0.0.0,10.139.104.221,1,0
2013-11-11 16:51:09.070,90,9,52.17024,4.457313,0,4.930084,284.1455,10.10256,10,1384185068,-0.03196716,-0.2654419,-0.413681,17.76972,51.52228,-39.78812,331.1446,330.8015,11,0.0.0.0,10.139.104.221,1,0
2013-11-11 16:51:09.150,91,9.1,52.17026,4.457234,0,4.885327,285.2948,10.00765,10,1384185069,-0.06973267,0.05145264,-0.5752869,17.82478,50.59006,-39.7307,330.6564,330.3134,11,0.0.0.0,10.139.104.221,1,0
2013-11-11 16:51:09.252,92,9.2,52.17026,4.457234,0,4.885327,285.2948,10.00765,10,1384185069,-0.158432,0.8552246,-0.937973,14.19077,56.18338,-36.17078,331.4203,331.0773,11,0.0.0.0,10.139.104.221,1,0
2013-11-11 16:51:09.353,93,9.3,52.17026,4.457234,0,4.885327,285.2948,10.00765,10,1384185069,-0.3442078,0.9500122,-0.9165497,5.711388,53.00287,-30.08444,330.3142,329.9712,11,0.0.0.0,10.139.104.221,1,0
2013-11-11 16:51:09.453,94,9.400001,52.17026,4.457234,0,4.885327,285.2948,10.00765,10,1384185069,-0.3309479,0.849884,-0.8286133,2.077374,49.93203,-24.11296,328.1758,327.8327,11,0.0.0.0,10.139.104.221,1,0
2013-11-11 16:51:09.550,95,9.5,52.17026,4.457234,0,4.885327,285.2948,10.00765,10,1384185069,-0.3074799,0.9153748,-0.6651306,2.352676,49.10948,-24.17038,325.7292,325.3862,11,0.0.0.0,10.139.104.221,1,0
2013-11-11 16:51:09.650,96,9.6,52.17026,4.457234,0,4.885327,285.2948,10.00765,10,1384185069,-0.09387207,0.7215271,-0.8847961,6.702484,51.79646,-29.6251,326.5378,326.1947,11,0.0.0.0,10.139.104.221,1,0
2013-11-11 16:51:09.757,97,9.7,52.17026,4.457234,0,4.885327,285.2948,10.00765,10,1384185069,0.02297974,0.4186249,-0.8358307,12.92436,53.16738,-38.29524,325.9885,325.6454,11,0.0.0.0,10.139.104.221,1,0
2013-11-11 16:51:09.849,98,9.8,52.17026,4.457234,0,4.885327,285.2948,10.00765,10,1384185069,-0.1715393,-0.08007812,-0.5402985,18.70575,53.11255,-41.45325,326.2958,325.9528,11,0.0.0.0,10.139.104.221,1,0
2013-11-11 16:51:09.950,99,9.900001,52.17026,4.457234,0,4.885327,285.2948,10.00765,10,1384185069,-0.08911133,0.003952026,-0.6823425,20.57782,52.12549,-40.99389,325.0984,324.7554,11,0.0.0.0,10.139.104.221,1,0
2013-11-11 16:51:10.060,100,10,52.17026,4.457234,0,4.885327,285.2948,10.00765,10,1384185069,-0.1016998,0.3185272,-0.7241058,17.10899,55.14149,-39.55844,325.1907,324.8477,11,0.0.0.0,10.139.104.221,1,0
2013-11-11 16:51:10.155,101,10.1,52.17027,4.457162,0,4.931821,285.018,9.860812,10,1384185070,-0.3034058,0.9568481,-0.9339294,11.49278,52.83836,-35.3095,325.8622,325.5191,11,0.0.0.0,10.139.104.221,1,0
2013-11-11 16:51:10.252,102,10.2,52.17027,4.457162,0,4.931821,285.018,9.860812,10,1384185070,-0.330719,1.050247,-0.8242798,4.830418,50.26104,-24.91681,322.6598,322.3168,11,0.0.0.0,10.139.104.221,1,0
2013-11-11 16:51:10.350,103,10.3,52.17027,4.457162,0,4.931821,285.018,9.860812,10,1384185070,-0.1981354,0.7778168,-0.6146851,5.491142,49.93203,-20.4382,320.9669,320.6239,11,0.0.0.0,10.139.104.221,1,0
2013-11-11 16:51:10.449,104,10.4,52.17027,4.457162,0,4.931821,285.018,9.860812,10,1384185070,-0.3036499,0.8517303,-0.7798309,7.583462,50.37072,-24.11296,322.6568,322.3138,11,0.0.0.0,10.139.104.221,1,0
2013-11-11 16:51:10.551,105,10.5,52.17027,4.457162,0,4.931821,285.018,9.860812,10,1384185070,-0.08332825,0.7080688,-0.8340912,11.27254,51.63195,-31.40507,325.6713,325.3283,11,0.0.0.0,10.139.104.221,1,0
2013-11-11 16:51:10.651,106,10.6,52.17027,4.457162,0,4.931821,285.018,9.860812,10,1384185070,0.07455444,0.5255127,-0.5720825,13.41991,53.00287,-38.00816,325.7524,325.4094,11,0.0.0.0,10.139.104.221,1,0
2013-11-11 16:51:10.761,107,10.7,52.17027,4.457162,0,4.931821,285.018,9.860812,10,1384185070,-0.002365112,-0.1120605,-0.5707092,18.87094,56.23822,-42.77386,325.3574,325.0144,11,0.0.0.0,10.139.104.221,1,0
2013-11-11 16:51:10.851,108,10.8,52.17027,4.457162,0,4.931821,285.018,9.860812,10,1384185070,-0.07183838,-0.04522705,-0.6831055,21.40374,56.01887,-41.97,325.1716,324.8286,11,0.0.0.0,10.139.104.221,1,0
2013-11-11 16:51:10.951,109,10.9,52.17027,4.457162,0,4.931821,285.018,9.860812,10,1384185070,-0.1463318,0.6826019,-0.6560974,16.72356,56.40273,-40.30488,326.0308,325.6877,11,0.0.0.0,10.139.104.221,1,0
2013-11-11 16:51:11.059,110,11,52.17027,4.457162,0,4.931821,285.018,9.860812,10,1384185070,-0.2760162,0.931427,-0.7672729,9.070099,51.30293,-30.83089,326.7306,326.3876,11,0.0.0.0,10.139.104.221,1,0
2013-11-11 16:51:11.153,111,11.1,52.17028,4.457092,0,4.932958,284.3044,9.570229,10,1384185071,-0.2104797,0.9126587,-0.8614044,4.610172,50.59006,-22.50526,324.3337,323.9907,11,0.0.0.0,10.139.104.221,1,0
2013-11-11 16:51:11.252,112,11.2,52.17028,4.457092,0,4.932958,284.3044,9.570229,10,1384185071,-0.1888123,0.7388153,-0.5833893,5.601265,50.91908,-22.84976,323.3425,322.9995,11,0.0.0.0,10.139.104.221,1,0
2013-11-11 16:51:11.355,113,11.3,52.17028,4.457092,0,4.932958,284.3044,9.570229,10,1384185071,-0.08320618,0.8749695,-0.8569031,7.253094,52.56417,-26.40969,325.0558,324.7128,11,0.0.0.0,10.139.104.221,1,0
2013-11-11 16:51:11.461,114,11.4,52.17028,4.457092,0,4.932958,284.3044,9.570229,10,1384185071,-0.03105164,0.4511414,-0.8156891,12.3187,54.64795,-35.82626,325.5118,325.1688,11,0.0.0.0,10.139.104.221,1,0
2013-11-11 16:51:11.551,115,11.5,52.17028,4.457092,0,4.932958,284.3044,9.570229,10,1384185071,-0.1152802,0.1819458,-0.6166992,15.73247,55.19631,-40.41971,326.4254,326.0824,11,0.0.0.0,10.139.104.221,1,0
2013-11-11 16:51:11.650,116,11.6,52.17028,4.457092,0,4.932958,284.3044,9.570229,10,1384185071,-0.007095337,-0.06626892,-0.5980988,18.70575,51.57711,-40.87906,325.1577,324.8147,11,0.0.0.0,10.139.104.221,1,0
2013-11-11 16:51:11.754,117,11.7,52.17028,4.457092,0,4.932958,284.3044,9.570229,10,1384185071,-0.1065674,0.1292267,-0.8112335,19.53167,52.83834,-40.47713,324.2189,323.8759,11,0.0.0.0,10.139.104.221,1,0
2013-11-11 16:51:11.851,118,11.8,52.17028,4.457092,0,4.932958,284.3044,9.570229,10,1384185071,-0.1401367,1.01506,-0.9480438,15.18186,55.635,-36.17078,325.2413,324.8983,11,0.0.0.0,10.139.104.221,1,0
2013-11-11 16:51:11.953,119,11.9,52.17028,4.457092,0,4.932958,284.3044,9.570229,10,1384185071,-0.2953644,0.928772,-0.8880615,8.023945,52.56416,-28.3619,324.1175,323.7745,11,0.0.0.0,10.139.104.221,1,0
2013-11-11 16:51:12.051,120,12,52.17028,4.457092,0,4.932958,284.3044,9.570229,10,1384185071,-0.3156891,0.8840637,-0.7965088,5.82151,50.26103,-21.7014,321.5363,321.1932,11,0.0.0.0,10.139.104.221,1,0
2013-11-11 16:51:12.150,121,12.1,52.1703,4.457021,0,4.932958,285.0853,9.304523,10,1384185072,-0.1456299,0.8539886,-0.6146851,7.418274,50.09652,-22.33299,319.9263,319.5833,11,0.0.0.0,10.139.104.221,1,0
2013-11-11 16:51:12.250,122,12.2,52.1703,4.457021,0,4.932958,285.0853,9.304523,10,1384185072,-0.2045441,0.7616577,-0.793808,9.455528,53.66089,-28.70641,322.9866,322.6436,11,0.0.0.0,10.139.104.221,1,0
2013-11-11 16:51:12.350,123,12.3,52.1703,4.457021,0,4.932958,285.0853,9.304523,10,1384185072,-0.06202698,0.5444031,-0.9474792,14.1357,56.6769,-37.26171,322.873,322.53,11,0.0.0.0,10.139.104.221,1,0
2013-11-11 16:51:12.451,124,12.4,52.1703,4.457021,0,4.932958,285.0853,9.304523,10,1384185072,-0.1067963,0.04650879,-0.5540009,19.36649,53.11252,-37.54881,324.5753,324.2323,11,0.0.0.0,10.139.104.221,1,0
2013-11-11 16:51:12.557,125,12.5,52.1703,4.457021,0,4.932958,285.0853,9.304523,10,1384185072,-0.04336548,-0.05128479,-0.6411285,20.52277,50.09652,-37.95073,324.5455,324.2025,11,0.0.0.0,10.139.104.221,1,0
2013-11-11 16:51:12.749,126,12.6,52.1703,4.457021,0,4.932958,285.0853,9.304523,10,1384185072,-0.04592896,-0.004135132,-0.7269287,20.96325,49.98684,-39.44361,324.7894,324.4464,11,0.0.0.0,10.139.104.221,1,0
2013-11-11 16:51:12.900,127,12.7,52.1703,4.457021,0,4.932958,285.0853,9.304523,10,1384185072,-0.2759552,0.9239349,-0.948349,10.28144,50.75455,-29.68253,326.1476,325.8046,11,0.0.0.0,10.139.104.221,1,0
2013-11-11 16:51:12.983,128,12.8,52.1703,4.457021,0,4.932958,285.0853,9.304523,10,1384185072,-0.2113342,0.8470154,-0.7716827,5.601265,46.20312,-19.63435,323.0744,322.7314,11,0.0.0.0,10.139.104.221,1,0
2013-11-11 16:51:13.053,129,12.9,52.1703,4.457021,0,4.932958,285.0853,9.304523,10,1384185072,-0.1755829,0.7705231,-0.7236328,7.08791,46.916,-21.18463,323.5795,323.2365,11,0.0.0.0,10.139.104.221,1,0
2013-11-11 16:51:13.169,130,13,52.1703,4.456946,0,5.267148,276.1407,9.255136,10,1384185073,-0.1611938,0.9466248,-0.9966278,7.032852,47.19018,-24.5723,325.872,325.529,11,0.0.0.0,10.139.104.221,1,0
2013-11-11 16:51:13.250,131,13.1,52.1703,4.456946,0,5.267148,276.1407,9.255136,10,1384185073,-0.1342926,0.6242218,-0.9246216,8.739738,52.83834,-31.5199,326.5554,326.2124,11,0.0.0.0,10.139.104.221,1,0
2013-11-11 16:51:13.352,132,13.2,52.1703,4.456946,0,5.267148,276.1407,9.255136,10,1384185073,-0.07385254,0.06707764,-0.585083,13.41991,55.30597,-38.69717,326.9591,326.6161,11,0.0.0.0,10.139.104.221,1,0
2013-11-11 16:51:13.450,133,13.3,52.1703,4.456946,0,5.267148,276.1407,9.255136,10,1384185073,-0.04443359,-0.08740234,-0.6419983,15.56729,52.39964,-41.39582,325.8806,325.5376,11,0.0.0.0,10.139.104.221,1,0
2013-11-11 16:51:13.551,134,13.4,52.1703,4.456946,0,5.267148,276.1407,9.255136,10,1384185073,-0.08798218,0.167984,-0.6983337,17.82478,56.95107,-43.06095,325.3243,324.9813,11,0.0.0.0,10.139.104.221,1,0
2013-11-11 16:51:13.652,135,13.5,52.1703,4.456946,0,5.267148,276.1407,9.255136,10,1384185073,-0.1828613,0.9437561,-0.8214569,13.91546,58.98002,-39.67328,325.7353,325.3923,11,0.0.0.0,10.139.104.221,1,0
2013-11-11 16:51:13.751,136,13.6,52.1703,4.456946,0,5.267148,276.1407,9.255136,10,1384185073,-0.3725586,0.9417877,-0.9146729,10.44662,54.86728,-31.57732,322.8771,322.5341,11,0.0.0.0,10.139.104.221,1,0
2013-11-11 16:51:13.858,137,13.7,52.1703,4.456946,0,5.267148,276.1407,9.255136,10,1384185073,-0.178772,0.8776855,-0.7667389,9.51059,54.70277,-25.77808,321.2196,320.8766,11,0.0.0.0,10.139.104.221,1,0
2013-11-11 16:51:13.950,138,13.8,52.1703,4.456946,0,5.267148,276.1407,9.255136,10,1384185073,-0.1501465,0.8115997,-0.6652374,11.71302,53.16734,-24.51489,320.7076,320.3645,11,0.0.0.0,10.139.104.221,1,0
2013-11-11 16:51:14.055,139,13.9,52.1703,4.456946,0,5.267148,276.1407,9.255136,10,1384185073,-0.2379456,0.8643646,-0.8604126,13.75027,53.22218,-27.44321,323.2993,322.9563,11,0.0.0.0,10.139.104.221,1,0
2013-11-11 16:51:14.150,140,14,52.17031,4.456872,0,5.170866,276.6181,9.19336,10,1384185074,-0.1058807,0.7238922,-0.974411,16.3932,53.88021,-33.64437,324.812,324.4689,11,0.0.0.0,10.139.104.221,1,0
2013-11-11 16:51:14.251,141,14.1,52.17031,4.456872,0,5.170866,276.6181,9.19336,10,1384185074,-0.01605225,0.2662964,-0.6905365,20.79807,56.07368,-39.61586,326.9931,326.6501,11,0.0.0.0,10.139.104.221,1,0
2013-11-11 16:51:14.351,142,14.2,52.17031,4.456872,0,5.170866,276.6181,9.19336,10,1384185074,-0.0451355,-0.1448975,-0.6233673,23.82642,52.94801,-41.74033,327.1076,326.7646,11,0.0.0.0,10.139.104.221,1,0
2013-11-11 16:51:14.462,143,14.3,52.17031,4.456872,0,5.170866,276.6181,9.19336,10,1384185074,-0.07266235,0.0451355,-0.7407837,23.55111,51.46741,-40.19004,327.4923,327.1493,11,0.0.0.0,10.139.104.221,1,0
2013-11-11 16:51:14.558,144,14.4,52.17031,4.456872,0,5.170866,276.6181,9.19336,10,1384185074,-0.1202087,0.6981201,-0.8283691,20.57782,55.41564,-37.89332,327.6494,327.3064,11,0.0.0.0,10.139.104.221,1,0
2013-11-11 16:51:14.650,145,14.5,52.17031,4.456872,0,5.170866,276.6181,9.19336,10,1384185074,-0.1841888,0.9062805,-0.9683685,11.98833,52.7835,-34.44823,326.7095,326.3665,11,0.0.0.0,10.139.104.221,1,0
2013-11-11 16:51:14.753,146,14.6,52.17031,4.456872,0,5.170866,276.6181,9.19336,10,1384185074,-0.2770691,0.8886871,-0.7389374,5.766449,52.18029,-26.81161,323.4481,323.1051,11,0.0.0.0,10.139.104.221,1,0
2013-11-11 16:51:14.850,147,14.7,52.17031,4.456872,0,5.170866,276.6181,9.19336,10,1384185074,-0.1807251,0.8246307,-0.6965332,6.977787,51.52226,-21.87365,321.7275,321.3845,11,0.0.0.0,10.139.104.221,1,0
2013-11-11 16:51:14.950,148,14.8,52.17031,4.456872,0,5.170866,276.6181,9.19336,10,1384185074,-0.2082214,0.8334045,-0.7579956,7.308155,51.52226,-23.13686,322.7892,322.4461,11,0.0.0.0,10.139.104.221,1,0
2013-11-11 16:51:15.066,149,14.9,52.17031,4.456872,0,5.170866,276.6181,9.19336,10,1384185074,-0.1935425,0.7548065,-0.879425,10.0612,51.74161,-30.83089,324.6064,324.2634,11,0.0.0.0,10.139.104.221,1,0
2013-11-11 16:51:15.152,150,15,52.17032,4.456811,0,4.399617,279.4175,9.05909,10,1384185075,-0.079422,0.4481049,-0.828537,14.85149,54.09958,-37.31914,325.1778,324.8348,11,0.0.0.0,10.139.104.221,1,0
2013-11-11 16:51:15.250,151,15.1,52.17032,4.456811,0,4.399617,279.4175,9.05909,10,1384185075,-0.06745911,-0.09225464,-0.5768433,21.95435,55.7995,-40.3623,325.1816,324.8386,11,0.0.0.0,10.139.104.221,1,0
2013-11-11 16:51:15.351,152,15.2,52.17032,4.456811,0,4.399617,279.4175,9.05909,10,1384185075,-0.05599976,-0.06542969,-0.7209778,23.66123,50.48036,-39.7307,325.8072,325.4642,11,0.0.0.0,10.139.104.221,1,0
2013-11-11 16:51:15.450,153,15.3,52.17032,4.456811,0,4.399617,279.4175,9.05909,10,1384185075,-0.1856689,0.3403778,-0.9785919,23.27581,53.05767,-39.21394,326.0112,325.6682,11,0.0.0.0,10.139.104.221,1,0
2013-11-11 16:51:15.550,154,15.4,52.17032,4.456811,0,4.399617,279.4175,9.05909,10,1384185075,0.003463745,0.3415527,-0.7558594,21.51386,56.01885,-40.13262,326.0628,325.7198,11,0.0.0.0,10.139.104.221,1,0
2013-11-11 16:51:15.651,155,15.5,52.17032,4.456811,0,4.399617,279.4175,9.05909,10,1384185075,-0.1131744,0.6047363,-0.8719025,17.38429,51.5771,-37.66364,325.3498,325.0068,11,0.0.0.0,10.139.104.221,1,0
2013-11-11 16:51:15.756,156,15.6,52.17032,4.456811,0,4.399617,279.4175,9.05909,10,1384185075,-0.3090363,0.7858582,-0.7261353,13.41991,48.94495,-33.4147,322.3828,322.0397,11,0.0.0.0,10.139.104.221,1,0
2013-11-11 16:51:15.850,157,15.7,52.17032,4.456811,0,4.399617,279.4175,9.05909,10,1384185075,-0.197464,0.8830261,-0.6490326,11.49278,48.01273,-26.1226,318.6356,318.2926,11,0.0.0.0,10.139.104.221,1,0
2013-11-11 16:51:15.952,158,15.8,52.17032,4.456811,0,4.399617,279.4175,9.05909,10,1384185075,-0.3175049,0.7969818,-0.5947418,10.94217,47.24501,-22.33299,315.4801,315.1371,11,0.0.0.0,10.139.104.221,1,0
2013-11-11 16:51:16.057,159,15.9,52.17032,4.456811,0,4.399617,279.4175,9.05909,10,1384185075,-0.2718658,0.7512817,-0.5779114,11.49278,46.916,-23.02202,316.3731,316.0301,11,0.0.0.0,10.139.104.221,1,0
2013-11-11 16:51:16.150,160,16,52.17033,4.456756,0,4.712623,279.1494,9,10,1384185076,-0.2034912,0.8127441,-0.6537476,11.27254,47.35469,-21.75881,318.9889,318.6459,11,0.0.0.0,10.139.104.221,1,0
2013-11-11 16:51:16.282,161,16.1,52.17033,4.456756,0,4.712623,279.1494,9,10,1384185076,-0.1804352,0.7062836,-0.595932,9.070099,47.13535,-21.0698,321.2623,320.9193,11,0.0.0.0,10.139.104.221,1,0
2013-11-11 16:51:16.358,162,16.2,52.17033,4.456756,0,4.712623,279.1494,9,10,1384185076,-0.2241821,0.7912292,-0.5924377,9.290344,47.24502,-21.41431,321.3344,320.9914,11,0.0.0.0,10.139.104.221,1,0
2013-11-11 16:51:16.453,163,16.3,52.17033,4.456756,0,4.712623,279.1494,9,10,1384185076,-0.2529297,0.7156372,-0.5874786,10.55674,48.7256,-22.04591,309.4819,309.1389,10,0.0.0.0,10.139.104.221,1,0
2013-11-11 16:51:16.552,164,16.4,52.17033,4.456756,0,4.712623,279.1494,9,10,1384185076,-0.1711273,0.7130585,-0.583252,9.565651,49.16429,-22.73492,307.8196,307.4766,10,0.0.0.0,10.139.104.221,1,0
2013-11-11 16:51:16.650,165,16.5,52.17033,4.456756,0,4.712623,279.1494,9,10,1384185076,-0.2006073,0.8509674,-0.6353302,9.730831,50.20619,-21.41431,310.0982,309.7552,10,0.0.0.0,10.139.104.221,1,0
2013-11-11 16:51:16.750,166,16.6,52.17033,4.456756,0,4.712623,279.1494,9,10,1384185076,-0.07453918,0.5877686,-0.5007629,9.455528,49.60299,-20.78271,311.6057,311.2627,10,0.0.0.0,10.139.104.221,1,0
2013-11-11 16:51:16.852,167,16.7,52.17033,4.456756,0,4.712623,279.1494,9,10,1384185076,-0.1965332,1.009186,-0.8557587,7.968884,50.09651,-21.52914,312.9243,312.5813,10,0.0.0.0,10.139.104.221,1,0
2013-11-11 16:51:16.953,168,16.8,52.17033,4.456756,0,4.712623,279.1494,9,10,1384185076,-0.2416534,0.7137451,-0.5523834,7.638519,51.30292,-23.5962,310.4986,310.1556,10,0.0.0.0,10.139.104.221,1,0
2013-11-11 16:51:17.092,169,16.9,52.17033,4.456756,0,4.712623,279.1494,9,10,1384185076,-0.1465912,0.7530823,-0.5336151,8.299252,48.78044,-22.67751,309.75,309.407,10,0.0.0.0,10.139.104.221,1,0
2013-11-11 16:51:17.152,170,17,52.17034,4.456711,0,3.755657,280.5279,9,10,1384185077,-0.3071136,0.8445587,-0.605545,7.528397,49.3288,-23.36653,310.7017,310.3587,10,0.0.0.0,10.139.104.221,1,0
2013-11-11 16:51:17.250,171,17.1,52.17034,4.456711,0,3.755657,280.5279,9,10,1384185077,-0.2552643,0.7706451,-0.560379,5.82151,50.3707,-23.65362,312.492,312.149,10,0.0.0.0,10.139.104.221,1,0
2013-11-11 16:51:17.350,172,17.2,52.17034,4.456711,0,3.755657,280.5279,9,10,1384185077,-0.1341858,0.7714844,-0.6338959,4.169685,50.48037,-24.11296,314.4791,314.1361,10,0.0.0.0,10.139.104.221,1,0
2013-11-11 16:51:17.450,173,17.3,52.17034,4.456711,0,3.755657,280.5279,9,10,1384185077,-0.2106171,0.8801575,-0.6734314,4.66523,50.42553,-24.51489,313.3036,312.9605,10,0.0.0.0,10.139.104.221,1,0
2013-11-11 16:51:17.555,174,17.4,52.17034,4.456711,0,3.755657,280.5279,9,10,1384185077,-0.1679077,0.7907104,-0.6340637,6.096817,49.7675,-23.13686,313.1147,312.7716,10,0.0.0.0,10.139.104.221,1,0
2013-11-11 16:51:17.650,175,17.5,52.17034,4.456711,0,3.755657,280.5279,9,10,1384185077,-0.2295837,0.7383881,-0.6108093,6.922729,50.04168,-24.80198,312.4862,312.1432,10,0.0.0.0,10.139.104.221,1,0
2013-11-11 16:51:17.752,176,17.6,52.17034,4.456711,0,3.755657,280.5279,9,10,1384185077,-0.2995911,0.7960052,-0.5547638,5.601265,49.82233,-25.37616,308.2586,307.9156,10,0.0.0.0,10.139.104.221,1,0
2013-11-11 16:51:17.854,177,17.7,52.17034,4.456711,0,3.755657,280.5279,9,10,1384185077,-0.1853027,0.791626,-0.5728149,6.20694,49.76749,-25.31874,306.5362,306.1931,10,0.0.0.0,10.139.104.221,1,0
2013-11-11 16:51:17.950,178,17.8,52.17034,4.456711,0,3.755657,280.5279,9,10,1384185077,-0.235611,0.7335205,-0.5154114,7.253094,50.04168,-25.83551,303.674,303.331,10,0.0.0.0,10.139.104.221,1,0
2013-11-11 16:51:18.133,179,17.9,52.17034,4.456711,0,3.755657,280.5279,9,10,1384185077,-0.2545013,0.8056488,-0.6870117,7.968884,50.09652,-25.89292,301.8699,301.5269,10,0.0.0.0,10.139.104.221,1,0
2013-11-11 16:51:18.251,180,18,52.17035,4.456669,0,3.755657,279.91,9.029738,10,1384185078,-0.2227478,0.7640381,-0.568985,6.096817,48.1224,-23.82587,306.5435,306.2005,10,0.0.0.0,10.139.104.221,1,0
2013-11-11 16:51:18.350,181,18.1,52.17035,4.456669,0,3.755657,279.91,9.029738,10,1384185078,-0.2584381,0.8003082,-0.6363983,6.757545,48.56109,-24.40005,305.1511,304.8081,10,0.0.0.0,10.139.104.221,1,0
2013-11-11 16:51:18.451,182,18.2,52.17035,4.456669,0,3.755657,279.91,9.029738,10,1384185078,-0.1925964,0.7808533,-0.590332,8.574554,48.7256,-25.72067,301.1567,300.8137,10,0.0.0.0,10.139.104.221,1,0
2013-11-11 16:51:18.550,183,18.3,52.17035,4.456669,0,3.755657,279.91,9.029738,10,1384185078,-0.282196,0.8072662,-0.6764221,9.951077,48.99978,-25.43358,302.9983,302.6553,10,0.0.0.0,10.139.104.221,1,0
2013-11-11 16:51:18.650,184,18.4,52.17035,4.456669,0,3.755657,279.91,9.029738,10,1384185078,-0.06855774,0.795517,-0.7505341,9.951077,50.53521,-27.15612,311.5407,311.1977,10,0.0.0.0,10.139.104.221,1,0
2013-11-11 16:51:18.751,185,18.5,52.17035,4.456669,0,3.755657,279.91,9.029738,10,1384185078,0.008590698,0.5191498,-0.8838654,15.1268,54.15442,-33.47212,314.9636,314.6206,10,0.0.0.0,10.139.104.221,1,0
2013-11-11 16:51:18.856,186,18.6,52.17035,4.456669,0,3.755657,279.91,9.029738,10,1384185078,0.01797485,0.4379425,-0.8728943,19.80697,58.81551,-41.22356,318.3245,317.9815,10,0.0.0.0,10.139.104.221,1,0
2013-11-11 16:51:18.951,187,18.7,52.17035,4.456669,0,3.755657,279.91,9.029738,10,1384185078,-0.04086304,0.0932312,-0.6492767,21.12843,56.73173,-42.2571,321.4679,321.1248,10,0.0.0.0,10.139.104.221,1,0
2013-11-11 16:51:19.091,188,18.8,52.17035,4.456669,0,3.755657,279.91,9.029738,10,1384185078,-0.06866455,0.01104736,-0.6102295,22.83532,52.1803,-43.92222,321.5068,321.1638,10,0.0.0.0,10.139.104.221,1,0
2013-11-11 16:51:19.151,189,18.9,52.17035,4.456626,0,3.612633,276.6273,9.029171,10,1384185079,0.06039429,0.2435913,-0.8731842,22.67014,54.53827,-42.14226,319.9435,319.6004,10,0.0.0.0,10.139.104.221,1,0
2013-11-11 16:51:19.250,190,19,52.17035,4.456626,0,3.612633,276.6273,9.029171,10,1384185079,-0.09803772,0.5560455,-0.8210907,19.75191,57.33493,-38.52491,314.4918,314.1488,10,0.0.0.0,10.139.104.221,1,0
2013-11-11 16:51:19.351,191,19.1,52.17035,4.456626,0,3.612633,276.6273,9.029171,10,1384185079,-0.2740936,0.5848389,-0.7225342,13.08955,55.74467,-34.67789,308.3293,307.9862,10,0.0.0.0,10.139.104.221,1,0
2013-11-11 16:51:19.451,192,19.2,52.17035,4.456626,0,3.612633,276.6273,9.029171,10,1384185079,-0.4056091,1.034409,-0.7953033,9.840954,52.94801,-28.18964,298.0924,297.7494,10,0.0.0.0,10.139.104.221,1,0
2013-11-11 16:51:19.550,193,19.3,52.17035,4.456626,0,3.612633,276.6273,9.029171,10,1384185079,-0.189682,0.7639465,-0.7256012,9.951077,51.52226,-25.66325,293.538,293.195,10,0.0.0.0,10.139.104.221,1,0
2013-11-11 16:51:19.651,194,19.4,52.17035,4.456626,0,3.612633,276.6273,9.029171,10,1384185079,-0.2322388,0.9445953,-0.8362579,11.71302,50.86422,-25.54842,296.7238,296.3808,10,0.0.0.0,10.139.104.221,1,0
2013-11-11 16:51:19.750,195,19.5,52.17035,4.456626,0,3.612633,276.6273,9.029171,10,1384185079,0.057724,0.7914886,-0.701355,13.03448,51.74161,-27.95998,303.5596,303.2166,10,0.0.0.0,10.139.104.221,1,0
2013-11-11 16:51:19.852,196,19.6,52.17035,4.456626,0,3.612633,276.6273,9.029171,10,1384185079,-0.0597229,0.6304169,-0.8328094,18.43045,55.68984,-33.12761,307.7724,307.4294,10,0.0.0.0,10.139.104.221,1,0
2013-11-11 16:51:19.950,197,19.7,52.17035,4.456626,0,3.612633,276.6273,9.029171,10,1384185079,-0.0349884,0.4711456,-0.8829193,24.37703,58.10265,-40.01779,311.4228,311.0797,10,0.0.0.0,10.139.104.221,1,0
2013-11-11 16:51:20.052,198,19.8,52.17035,4.456626,0,3.612633,276.6273,9.029171,10,1384185079,-0.06114197,0.1792145,-0.8004761,26.46934,53.49638,-41.39582,313.8057,313.4627,10,0.0.0.0,10.139.104.221,1,0
2013-11-11 16:51:20.152,199,19.9,52.17036,4.456583,0,4.124402,275.2135,9.017607,10,1384185080,-0.1003265,0.04023743,-0.6941528,27.73574,50.26102,-40.30488,313.7601,313.4171,10,0.0.0.0,10.139.104.221,1,0
2013-11-11 16:51:20.251,200,20,52.17036,4.456583,0,4.124402,275.2135,9.017607,10,1384185080,-0.05168152,0.2678986,-0.8084564,26.63452,55.85435,-39.27135,314.0809,313.7379,10,0.0.0.0,10.139.104.221,1,0
2013-11-11 16:51:20.352,201,20.1,52.17036,4.456583,0,4.124402,275.2135,9.017607,10,1384185080,-0.09466553,0.6968994,-0.7990417,21.95435,58.32199,-35.76884,313.1904,312.8474,10,0.0.0.0,10.139.104.221,1,0
2013-11-11 16:51:20.452,202,20.2,52.17036,4.456583,0,4.124402,275.2135,9.017607,10,1384185080,-0.1191254,0.901413,-0.8220673,15.1268,54.59312,-30.48637,307.3897,307.0467,10,0.0.0.0,10.139.104.221,1,0
2013-11-11 16:51:20.551,203,20.3,52.17036,4.456583,0,4.124402,275.2135,9.017607,10,1384185080,-0.2727051,0.9146271,-0.7789001,11.38266,52.07063,-23.13686,304.0352,303.6921,10,0.0.0.0,10.139.104.221,1,0
2013-11-11 16:51:20.651,204,20.4,52.17036,4.456583,0,4.124402,275.2135,9.017607,10,1384185080,-0.08662415,0.7630768,-0.5927887,10.61181,51.96096,-23.13686,302.8918,302.5487,10,0.0.0.0,10.139.104.221,1,0
2013-11-11 16:51:20.753,205,20.5,52.17036,4.456583,0,4.124402,275.2135,9.017607,10,1384185080,-0.3088989,0.8294525,-0.7681122,10.17132,51.52227,-25.43358,304.8077,304.4647,10,0.0.0.0,10.139.104.221,1,0
2013-11-11 16:51:20.859,206,20.6,52.17036,4.456583,0,4.124402,275.2135,9.017607,10,1384185080,-0.1539917,0.6939392,-0.4955139,10.44662,51.57711,-26.86903,307.9277,307.5847,10,0.0.0.0,10.139.104.221,1,0
2013-11-11 16:51:20.963,207,20.7,52.17036,4.456583,0,4.124402,275.2135,9.017607,10,1384185080,-0.2241364,0.6192474,-0.5910034,9.290344,50.9739,-28.18964,311.8083,311.4653,10,0.0.0.0,10.139.104.221,1,0
2013-11-11 16:51:21.088,208,20.8,52.17036,4.456583,0,4.124402,275.2135,9.017607,10,1384185080,-0.216095,0.6519318,-0.8500366,10.88711,49.71267,-29.51026,309.4641,309.1211,10,0.0.0.0,10.139.104.221,1,0
2013-11-11 16:51:21.151,209,20.9,52.17036,4.456526,0,4.166558,274.7892,9.004193,10,1384185081,-0.182724,0.6212006,-0.7154541,10.83205,49.65783,-29.79736,308.5769,308.2339,10,0.0.0.0,10.139.104.221,1,0
2013-11-11 16:51:21.250,210,21,52.17036,4.456526,0,4.166558,274.7892,9.004193,10,1384185081,-0.1750183,0.7535248,-0.7654419,11.0523,51.19325,-29.79736,310.2132,309.8701,10,0.0.0.0,10.139.104.221,1,0
2013-11-11 16:51:21.352,211,21.1,52.17036,4.456526,0,4.166558,274.7892,9.004193,10,1384185081,-0.1662445,0.5810242,-0.5828857,9.400467,50.64489,-28.99351,311.8667,311.5237,10,0.0.0.0,10.139.104.221,1,0
2013-11-11 16:51:21.453,212,21.2,52.17036,4.456526,0,4.166558,274.7892,9.004193,10,1384185081,-0.2518616,0.6845856,-0.6672363,8.134068,49.71267,-28.13223,313.3233,312.9803,10,0.0.0.0,10.139.104.221,1,0
2013-11-11 16:51:21.560,213,21.3,52.17036,4.456526,0,4.166558,274.7892,9.004193,10,1384185081,-0.3070679,0.7417603,-0.7357483,8.684677,50.15136,-28.70641,310.4066,310.0636,10,0.0.0.0,10.139.104.221,1,0
2013-11-11 16:51:21.651,214,21.4,52.17036,4.456526,0,4.166558,274.7892,9.004193,10,1384185081,-0.2609711,0.7044678,-0.6507568,8.464432,49.93201,-26.40969,309.5706,309.2276,10,0.0.0.0,10.139.104.221,1,0
2013-11-11 16:51:21.751,215,21.5,52.17036,4.456526,0,4.166558,274.7892,9.004193,10,1384185081,-0.2620392,0.7607727,-0.6947327,7.473339,50.04169,-25.03165,312.441,312.098,10,0.0.0.0,10.139.104.221,1,0
2013-11-11 16:51:21.851,216,21.6,52.17036,4.456526,0,4.166558,274.7892,9.004193,10,1384185081,-0.2249451,0.6703796,-0.6651459,7.363216,50.15136,-24.91681,312.1111,311.7681,10,0.0.0.0,10.139.104.221,1,0
2013-11-11 16:51:21.950,217,21.7,52.17036,4.456526,0,4.166558,274.7892,9.004193,10,1384185081,-0.2496033,0.7146301,-0.6916351,5.546207,49.7675,-24.28522,315.1729,314.8299,10,0.0.0.0,10.139.104.221,1,0
2013-11-11 16:51:22.055,218,21.8,52.17036,4.456526,0,4.166558,274.7892,9.004193,10,1384185081,-0.2297668,0.7509308,-0.629364,6.702484,49.1643,-23.42394,314.2786,313.9355,10,0.0.0.0,10.139.104.221,1,0
2013-11-11 16:51:22.154,219,21.9,52.17037,4.456473,0,3.671052,288.0178,9.006159,10,1384185082,-0.269104,0.7682495,-0.6392822,6.427181,48.34176,-23.36653,313.4334,313.0904,10,0.0.0.0,10.139.104.221,1,0
2013-11-11 16:51:22.251,220,22,52.17037,4.456473,0,3.671052,288.0178,9.006159,10,1384185082,-0.2559509,0.7327881,-0.6410828,5.105721,49.98685,-25.43358,314.6717,314.3287,10,0.0.0.0,10.139.104.221,1,0
2013-11-11 16:51:22.351,221,22.1,52.17037,4.456473,0,3.671052,288.0178,9.006159,10,1384185082,-0.2534943,0.7036285,-0.61763,6.482243,50.48038,-26.18002,314.2601,313.9171,10,0.0.0.0,10.139.104.221,1,0
2013-11-11 16:51:22.453,222,22.2,52.17037,4.456473,0,3.671052,288.0178,9.006159,10,1384185082,-0.2676697,0.7093658,-0.6634521,6.922729,49.82233,-24.91681,314.311,313.968,10,0.0.0.0,10.139.104.221,1,0
2013-11-11 16:51:22.550,223,22.3,52.17037,4.456473,0,3.671052,288.0178,9.006159,10,1384185082,-0.2455902,0.7384033,-0.6449432,5.491142,50.26103,-23.99812,315.1116,314.7686,10,0.0.0.0,10.139.104.221,1,0
2013-11-11 16:51:22.650,224,22.4,52.17037,4.456473,0,3.671052,288.0178,9.006159,10,1384185082,-0.2545166,0.7150421,-0.6556244,4.940536,50.48038,-24.2278,315.3782,315.0352,10,0.0.0.0,10.139.104.221,1,0
2013-11-11 16:51:22.757,225,22.5,52.17037,4.456473,0,3.671052,288.0178,9.006159,10,1384185082,-0.253952,0.7709045,-0.6363068,4.555111,50.75456,-24.28522,316.3783,316.0352,10,0.0.0.0,10.139.104.221,1,0
2013-11-11 16:51:22.851,226,22.6,52.17037,4.456473,0,3.671052,288.0178,9.006159,10,1384185082,-0.2604065,0.761261,-0.6372833,4.169685,50.69973,-24.5723,315.395,315.052,10,0.0.0.0,10.139.104.221,1,0
2013-11-11 16:51:22.950,227,22.7,52.17037,4.456473,0,3.671052,288.0178,9.006159,10,1384185082,-0.3212891,0.7998047,-0.6142426,4.885475,50.97391,-22.90717,316.8037,316.4607,10,0.0.0.0,10.139.104.221,1,0
2013-11-11 16:51:23.099,228,22.8,52.17037,4.456473,0,3.671052,288.0178,9.006159,10,1384185082,-0.2011719,0.7025909,-0.6174316,3.619076,50.48038,-22.39042,319.6531,319.3101,10,0.0.0.0,10.139.104.221,1,0
2013-11-11 16:51:23.152,229,22.9,52.17038,4.456419,0,3.671052,288.0178,9.02393,10,1384185083,-0.2674103,0.7097321,-0.5154877,2.407738,49.71267,-22.50526,320.5267,320.1837,10,0.0.0.0,10.139.104.221,1,0
2013-11-11 16:51:23.252,230,23,52.17038,4.456419,0,3.671052,288.0178,9.02393,10,1384185083,-0.1837616,0.8568115,-0.817337,2.958347,50.48038,-24.80198,316.6671,316.3241,10,0.0.0.0,10.139.104.221,1,0
2013-11-11 16:51:23.352,231,23.1,52.17038,4.456419,0,3.671052,288.0178,9.02393,10,1384185083,-0.3117523,0.5968628,-0.4481812,2.187492,50.04168,-23.53878,316.95,316.6069,10,0.0.0.0,10.139.104.221,1,0
2013-11-11 16:51:23.450,232,23.2,52.17038,4.456419,0,3.671052,288.0178,9.02393,10,1384185083,-0.2933044,0.7975006,-0.4827118,0.8660316,49.82234,-22.9646,318.2362,317.8932,10,0.0.0.0,10.139.104.221,1,0
2013-11-11 16:51:23.551,233,23.3,52.17038,4.456419,0,3.671052,288.0178,9.02393,10,1384185083,-0.3530121,0.8842316,-0.5347748,0.2053032,50.3707,-24.91681,315.755,315.412,10,0.0.0.0,10.139.104.221,1,0
2013-11-11 16:51:23.757,234,23.4,52.17038,4.456419,0,3.671052,288.0178,9.02393,10,1384185083,-0.2643127,0.7288361,-0.4483337,0.8660316,49.60299,-25.14648,312.1837,311.8406,10,0.0.0.0,10.139.104.221,1,0
2013-11-11 16:51:23.851,235,23.5,52.17038,4.456419,0,3.671052,288.0178,9.02393,10,1384185083,-0.3709259,0.8720856,-0.5114288,-1.171219,48.34175,-25.2039,311.8076,311.4645,10,0.0.0.0,10.139.104.221,1,0
2013-11-11 16:51:23.952,236,23.6,52.17038,4.456419,0,3.671052,288.0178,9.02393,10,1384185083,-0.3023682,0.8051758,-0.4087677,-1.281342,48.67077,-27.04128,307.4831,307.1401,10,0.0.0.0,10.139.104.221,1,0
2013-11-11 16:51:24.059,237,23.7,52.17038,4.456419,0,3.671052,288.0178,9.02393,10,1384185083,-0.2848969,0.8929291,-0.5014191,-1.281342,48.5611,-27.3858,305.6032,305.2602,10,0.0.0.0,10.139.104.221,1,0
2013-11-11 16:51:24.151,238,23.8,52.17039,4.456369,0,3.137208,285.6344,9.02979,10,1384185084,-0.2535095,0.8858032,-0.4652557,-1.942074,47.79339,-27.95998,302.735,302.392,10,0.0.0.0,10.139.104.221,1,0
2013-11-11 16:51:24.250,239,23.9,52.17039,4.456369,0,3.137208,285.6344,9.02979,10,1384185084,-0.2549896,0.7971191,-0.3326263,-2.052193,47.57404,-29.79736,298.7625,298.4195,10,0.0.0.0,10.139.104.221,1,0
2013-11-11 16:51:24.350,240,24,52.17039,4.456369,0,3.137208,285.6344,9.02979,10,1384185084,-0.3855286,0.8972778,-0.3509216,-1.281342,47.46437,-32.09408,293.0236,292.6806,10,0.0.0.0,10.139.104.221,1,0
2013-11-11 16:51:24.451,241,24.1,52.17039,4.456369,0,3.137208,285.6344,9.02979,10,1384185084,-0.3073273,0.9075012,-0.4528656,0.5356674,46.7515,-33.98888,287.3741,287.0311,10,0.0.0.0,10.139.104.221,1,0
2013-11-11 16:51:24.552,242,24.2,52.17039,4.456369,0,3.137208,285.6344,9.02979,10,1384185084,-0.2614288,0.944458,-0.4810333,1.802071,44.61287,-34.73532,283.9456,283.6025,10,0.0.0.0,10.139.104.221,1,0
2013-11-11 16:51:24.652,243,24.3,52.17039,4.456369,0,3.137208,285.6344,9.02979,10,1384185084,-0.4867554,0.8411865,-0.3979034,3.453896,42.63876,-35.99852,276.4935,276.1505,10,0.0.0.0,10.139.104.221,1,0
2013-11-11 16:51:24.751,244,24.4,52.17039,4.456369,0,3.137208,285.6344,9.02979,10,1384185084,-0.1750031,0.9010315,-0.6635895,4.830418,41.15818,-38.00816,271.4227,271.0797,10,0.0.0.0,10.139.104.221,1,0
2013-11-11 16:51:24.850,245,24.5,52.17039,4.456369,0,3.137208,285.6344,9.02979,10,1384185084,-0.282074,0.7481842,-0.6159058,7.032852,41.37752,-40.0752,271.2491,270.9061,10,0.0.0.0,10.139.104.221,1,0
2013-11-11 16:51:24.951,246,24.6,52.17039,4.456369,0,3.137208,285.6344,9.02979,10,1384185084,-0.2967072,0.8109131,-0.8478394,10.44662,37.53897,-42.60161,269.3249,268.9819,10,0.0.0.0,10.139.104.221,1,0
2013-11-11 16:51:25.062,247,24.7,52.17039,4.456369,0,3.137208,285.6344,9.02979,10,1384185084,-0.1701355,0.4663239,-0.4151459,13.19967,33.70042,-46.16152,280.115,279.7719,10,0.0.0.0,10.139.104.221,1,0
2013-11-11 16:51:25.166,248,24.8,52.17039,4.456369,0,0,285.6344,9.012031,10,1384185085,-0.4321136,1.089783,-0.8899994,14.63125,31.39728,-46.3912,280.9906,280.6476,10,0.0.0.0,10.139.104.221,1,0
2013-11-11 16:51:25.254,249,24.9,52.17039,4.456369,0,0,285.6344,9.012031,10,1384185085,0.02609253,0.2610474,-0.5287476,20.1924,28.92964,-49.5492,283.4422,283.0992,10,0.0.0.0,10.139.104.221,1,0
2013-11-11 16:51:25.354,250,25,52.17039,4.456369,0,0,285.6344,9.012031,10,1384185085,-0.2937317,0.2511749,-1.032333,21.84422,27.28455,-48.40083,287.4455,287.1025,10,0.0.0.0,10.139.104.221,1,0
2013-11-11 16:51:25.464,251,25.1,52.17039,4.456369,0,0,285.6344,9.012031,10,1384185085,-0.1946106,0.2068329,-1.068802,24.76245,26.13298,-47.6544,286.4617,286.1187,10,0.0.0.0,10.139.104.221,1,0
2013-11-11 16:51:25.551,252,25.2,52.17039,4.456369,0,0,285.6344,9.012031,10,1384185085,-0.2707062,0.1550293,-1.021271,25.20294,24.59756,-45.35767,287.1466,286.8036,10,0.0.0.0,10.139.104.221,1,0
2013-11-11 16:51:25.652,253,25.3,52.17039,4.456369,0,0,285.6344,9.012031,10,1384185085,-0.2973785,0.05856323,-1.155487,20.41264,21.91057,-44.38157,287.6773,287.3343,10,0.0.0.0,10.139.104.221,1,0
2013-11-11 16:51:25.750,254,25.4,52.17039,4.456369,0,0,285.6344,9.012031,10,1384185085,0.4002228,-0.01853943,-0.9101257,18.65069,18.9494,-43.57771,285.6933,285.3503,10,0.0.0.0,10.139.104.221,1,0
2013-11-11 16:51:26.130,255,25.5,52.17039,4.456369,0,0,285.6344,9.012031,10,1384185085,0.04440308,0.5321808,-0.8769379,17.82478,23.50083,-45.58734,283.4899,283.1469,10,0.0.0.0,10.139.104.221,1,0
2013-11-11 16:51:26.256,256,25.6,52.17039,4.456369,0,0,285.6344,9.012031,10,1384185085,-0.4609528,0.2287598,-0.7408447,14.74137,25.14592,-45.128,226.7353,226.3923,11,0.0.0.0,10.139.104.221,1,0
2013-11-11 16:51:26.384,257,25.7,52.17039,4.456319,0.6002464,1.351062,271.8016,9.026616,10,1384185086,-0.1398926,0.5344238,-0.9253693,12.594,26.95552,-45.98927,220.6608,220.3178,11,0.0.0.0,10.139.104.221,1,0
2013-11-11 16:51:26.457,258,25.8,52.17039,4.456319,0.6002464,1.351062,271.8016,9.026616,10,1384185086,-0.02368164,0.6158752,-0.7401428,6.096817,27.39422,-48.05633,208.6999,208.3569,11,0.0.0.0,10.139.104.221,1,0
2013-11-11 16:51:26.550,259,25.9,52.17039,4.456319,0.6002464,1.351062,271.8016,9.026616,10,1384185086,-0.03587341,0.5980225,-0.6885376,0.5907288,28.38128,-47.59698,201.486,201.1429,11,0.0.0.0,10.139.104.221,1,0
2013-11-11 16:51:26.655,260,26,52.17039,4.456319,0.6002464,1.351062,271.8016,9.026616,10,1384185086,-0.1802216,0.6694641,-0.6669006,-1.997131,31.06827,-47.6544,197.4825,197.1395,11,0.0.0.0,10.139.104.221,1,0
2013-11-11 16:51:26.754,261,26.1,52.17039,4.456319,0.6002464,1.351062,271.8016,9.026616,10,1384185086,-0.1252289,0.7191467,-0.6726685,-5.686211,32.43917,-46.90797,190.9939,190.6509,11,0.0.0.0,10.139.104.221,1,0
2013-11-11 16:51:26.850,262,26.2,52.17039,4.456319,0.6002464,1.351062,271.8016,9.026616,10,1384185086,-0.2527008,0.865509,-0.5469818,-10.75181,32.43917,-44.84091,183.5523,183.2093,11,0.0.0.0,10.139.104.221,1,0
2013-11-11 16:51:26.951,263,26.3,52.17039,4.456319,0.6002464,1.351062,271.8016,9.026616,10,1384185086,-0.2487335,0.7810516,-0.583725,-13.33967,34.02943,-42.60161,184.3374,183.9944,10,0.0.0.0,10.139.104.221,1,0
2013-11-11 16:51:27.087,264,26.4,52.17039,4.456319,0.6002464,1.351062,271.8016,9.026616,10,1384185086,-0.250351,0.9514923,-0.6523438,-14.71619,34.19394,-42.65902,177.3032,176.9602,10,0.0.0.0,10.139.104.221,1,0
2013-11-11 16:51:27.151,265,26.5,52.17039,4.456319,0.6002464,0,271.8016,9.022639,10,1384185087,-0.2307281,0.7527618,-0.4268494,-15.70729,32.3295,-42.42934,167.2865,166.9435,10,0.0.0.0,10.139.104.221,1,0
2013-11-11 16:51:27.251,266,26.6,52.17039,4.456319,0.6002464,0,271.8016,9.022639,10,1384185087,-0.04943848,0.8687286,-0.7185059,-15.10162,31.39728,-42.83128,162.7993,162.4563,10,0.0.0.0,10.139.104.221,1,0
2013-11-11 16:51:27.356,267,26.7,52.17039,4.456319,0.6002464,0,271.8016,9.022639,10,1384185087,-0.2455597,0.7345886,-0.6342316,-15.59716,30.79408,-44.26673,156.9559,156.6128,10,0.0.0.0,10.139.104.221,1,0
2013-11-11 16:51:27.450,268,26.8,52.17039,4.456319,0.6002464,0,271.8016,9.022639,10,1384185087,0.006195068,0.7423706,-0.6245117,-17.24899,30.35539,-45.30025,150.5562,150.2132,10,0.0.0.0,10.139.104.221,1,0
2013-11-11 16:51:27.551,269,26.9,52.17039,4.456319,0.6002464,0,271.8016,9.022639,10,1384185087,-0.1160278,0.7392731,-0.6999359,-16.20284,30.19088,-45.93185,145.1904,144.8474,10,0.0.0.0,10.139.104.221,1,0
2013-11-11 16:51:27.650,270,27,52.17039,4.456319,0.6002464,0,271.8016,9.022639,10,1384185087,-0.04025269,0.7243958,-0.7736053,-14.11052,31.83598,-47.08022,138.4139,138.0708,10,0.0.0.0,10.139.104.221,1,0
2013-11-11 16:51:27.752,271,27.1,52.17039,4.456319,0.6002464,0,271.8016,9.022639,10,1384185087,-0.057724,0.5255432,-0.7536774,-11.24736,35.56485,-46.27636,108.7872,108.4441,10,0.0.0.0,10.139.104.221,1,0
2013-11-11 16:51:27.852,272,27.2,52.17039,4.456319,0.6002464,0,271.8016,9.022639,10,1384185087,-0.08770752,0.5290375,-0.8657532,-11.30242,37.26479,-45.18542,63.42648,63.08345,10,0.0.0.0,10.139.104.221,1,0
2013-11-11 16:51:27.951,273,27.3,52.17039,4.456319,0.6002464,0,271.8016,9.022639,10,1384185087,-0.0756073,0.5041046,-0.8958282,-10.80687,37.97766,-44.66866,48.06789,47.72486,10,0.0.0.0,10.139.104.221,1,0
2013-11-11 16:51:28.068,274,27.4,52.17039,4.456319,0.6002464,0,271.8016,9.022639,10,1384185087,-0.05511475,0.4139557,-0.9860687,-8.274075,35.56485,-43.8648,35.33178,34.98875,10,0.0.0.0,10.139.104.221,1,0
2013-11-11 16:51:28.150,275,27.5,52.17039,4.456319,0.6002464,0,271.8016,9.022033,10,1384185088,-0.06822205,0.2400055,-0.7977448,-6.181759,31.39728,-43.17579,128.6761,128.3331,11,0.0.0.0,10.139.104.221,1,0
2013-11-11 16:51:28.250,276,27.6,52.17039,4.456319,0.6002464,0,271.8016,9.022033,10,1384185088,-0.1804352,0.1655579,-0.8466949,-6.897549,26.73618,-42.31451,142.92,142.5769,11,0.0.0.0,10.139.104.221,1,0
2013-11-11 16:51:28.350,277,27.7,52.17039,4.456319,0.6002464,0,271.8016,9.022033,10,1384185088,-0.1173248,0.1515198,-0.8561249,-6.236813,27.39422,-43.92222,142.5489,142.2059,11,0.0.0.0,10.139.104.221,1,0
2013-11-11 16:51:28.450,278,27.8,52.17039,4.456319,0.6002464,0,271.8016,9.022033,10,1384185088,-0.1272888,0.1872101,-0.9302521,-5.245724,31.78114,-43.69254,141.8447,141.5017,11,0.0.0.0,10.139.104.221,1,0
2013-11-11 16:51:28.556,279,27.9,52.17039,4.456319,0.6002464,0,271.8016,9.022033,10,1384185088,0.01052856,0.4237518,-0.8378296,-5.631149,36.00355,-43.74997,142.7737,142.4307,11,0.0.0.0,10.139.104.221,1,0
2013-11-11 16:51:28.650,280,28,52.17039,4.456319,0.6002464,0,271.8016,9.022033,10,1384185088,-0.03147888,0.6734467,-0.9866486,-6.842495,39.51308,-43.40546,144.3381,143.995,11,0.0.0.0,10.139.104.221,1,0
2013-11-11 16:51:28.750,281,28.1,52.17039,4.456319,0.6002464,0,271.8016,9.022033,10,1384185088,-0.003570557,0.6553192,-0.7645111,-8.714558,39.51308,-44.32415,147.8906,147.5476,11,0.0.0.0,10.139.104.221,1,0
2013-11-11 16:51:28.850,282,28.2,52.17039,4.456319,0.6002464,0,271.8016,9.022033,10,1384185088,-0.1736298,0.6564026,-0.5860443,-11.35748,39.18406,-43.40546,149.7381,149.3951,11,0.0.0.0,10.139.104.221,1,0
2013-11-11 16:51:28.952,283,28.3,52.17039,4.456319,0.6002464,0,271.8016,9.022033,10,1384185088,-0.289856,0.8486328,-0.6580658,-14.77125,39.07439,-41.68291,150.5554,150.2123,11,0.0.0.0,10.139.104.221,1,0
2013-11-11 16:51:29.064,284,28.4,52.17039,4.456319,0.6002464,0,271.8016,9.022033,10,1384185088,-0.1918488,0.8878479,-0.8622284,-15.70729,35.94871,-38.75459,152.2623,151.9193,11,0.0.0.0,10.139.104.221,1,0
2013-11-11 16:51:29.158,285,28.5,52.17037,4.456334,0,2.156142,106.7167,9.035965,10,1384185089,-0.1089325,0.7774048,-0.3553619,-15.87247,34.1391,-40.87906,152.8392,152.4962,11,0.0.0.0,10.139.104.221,1,0
2013-11-11 16:51:29.253,286,28.6,52.17037,4.456334,0,2.156142,106.7167,9.035965,10,1384185089,-0.09248352,1.020523,-0.9965515,-15.2668,32.65852,-43.34804,152.8981,152.5551,11,0.0.0.0,10.139.104.221,1,0
2013-11-11 16:51:29.351,287,28.7,52.17037,4.456334,0,2.156142,106.7167,9.035965,10,1384185089,0.003082275,0.718689,-0.6565704,-13.7251,31.67147,-45.87444,153.6017,153.2587,11,0.0.0.0,10.139.104.221,1,0
2013-11-11 16:51:29.451,288,28.8,52.17037,4.456334,0,2.156142,106.7167,9.035965,10,1384185089,-0.01005554,0.7242432,-0.7248077,-11.79797,31.28761,-47.08022,147.0374,146.6944,10,0.0.0.0,10.139.104.221,1,0
2013-11-11 16:51:29.550,289,28.9,52.17037,4.456334,0,2.156142,106.7167,9.035965,10,1384185089,0.04402161,0.5619049,-0.9403076,-8.49432,34.90682,-47.6544,100.1098,99.76681,10,0.0.0.0,10.139.104.221,1,0
2013-11-11 16:51:29.654,290,29,52.17037,4.456334,0,2.156142,106.7167,9.035965,10,1384185089,-0.09103394,0.2610168,-0.9040222,-6.842495,36.00355,-46.16152,42.51674,42.17371,10,0.0.0.0,10.139.104.221,1,0
2013-11-11 16:51:29.753,291,29.1,52.17037,4.456334,0,2.156142,106.7167,9.035965,10,1384185089,-0.0826416,0.2405548,-0.7676392,-6.181759,31.39728,-44.55382,40.29678,39.95375,10,0.0.0.0,10.139.104.221,1,0
2013-11-11 16:51:29.850,292,29.2,52.17037,4.456334,0,2.156142,106.7167,9.035965,10,1384185089,-0.04649353,0.04841614,-0.862381,-4.36475,24.65239,-43.80738,40.44239,40.09937,10,0.0.0.0,10.139.104.221,1,0
2013-11-11 16:51:29.951,293,29.3,52.17037,4.456334,0,2.156142,106.7167,9.035965,10,1384185089,0.03245544,0.2372894,-0.7671814,-5.300785,25.69429,-42.02743,47.6926,47.34958,10,0.0.0.0,10.139.104.221,1,0
2013-11-11 16:51:30.052,294,29.4,52.17037,4.456334,0,2.156142,106.7167,9.035965,10,1384185089,-0.09317017,0.2193604,-0.6459198,-5.465965,32.11016,-41.97,51.71118,51.36815,10,0.0.0.0,10.139.104.221,1,0
2013-11-11 16:51:30.150,295,29.5,52.17037,4.456374,0,2.990492,104.7763,9.041866,10,1384185090,-0.1091614,0.8032837,-1.064209,-7.943707,37.75831,-42.37193,68.14104,67.79802,10,0.0.0.0,10.139.104.221,1,0
2013-11-11 16:51:30.250,296,29.6,52.17037,4.456374,0,2.990492,104.7763,9.041866,10,1384185090,-0.2919617,0.7556915,-0.7824554,-12.51376,37.37446,-40.93648,128.1041,127.7611,10,0.0.0.0,10.139.104.221,1,0
2013-11-11 16:51:30.353,297,29.7,52.17037,4.456374,0,2.990492,104.7763,9.041866,10,1384185090,-0.3822632,1.199127,-0.6846619,-15.48705,37.04544,-38.98426,139.4419,139.0988,10,0.0.0.0,10.139.104.221,1,0
2013-11-11 16:51:30.453,298,29.8,52.17037,4.456374,0,2.990492,104.7763,9.041866,10,1384185090,-0.0224762,0.8890533,-0.8985596,-18.29515,36.44224,-37.31914,143.0465,142.7034,10,0.0.0.0,10.139.104.221,1,0
2013-11-11 16:51:30.550,299,29.9,52.17037,4.456374,0,2.990492,104.7763,9.041866,10,1384185090,-0.3560944,0.8585358,-0.5736542,-16.97368,35.34551,-39.27135,141.932,141.589,10,0.0.0.0,10.139.104.221,1,0
2013-11-11 16:51:30.653,300,30,52.17037,4.456374,0,2.990492,104.7763,9.041866,10,1384185090,0.08335876,0.9769592,-0.5596008,-14.27571,34.30361,-42.88869,142.2433,141.9003,10,0.0.0.0,10.139.104.221,1,0
2013-11-11 16:51:30.750,301,30.1,52.17037,4.456374,0,2.990492,104.7763,9.041866,10,1384185090,-0.04559326,0.7321167,-0.6840668,-10.80687,36.66158,-44.43898,134.555,134.212,10,0.0.0.0,10.139.104.221,1,0
2013-11-11 16:51:30.850,302,30.2,52.17037,4.456374,0,2.990492,104.7763,9.041866,10,1384185090,-0.01733398,0.528595,-0.8703461,-7.833584,39.8421,-45.47251,72.8155,72.47247,10,0.0.0.0,10.139.104.221,1,0
2013-11-11 16:51:30.958,303,30.3,52.17037,4.456374,0,2.990492,104.7763,9.041866,10,1384185090,-0.1151581,0.5331116,-1.125839,-5.576088,34.85198,-43.57771,56.48307,56.14004,10,0.0.0.0,10.139.104.221,1,0
2013-11-11 16:51:31.094,304,30.4,52.17037,4.456374,0,2.990492,104.7763,9.041866,10,1384185090,-0.2072449,0.02905273,-0.5426788,-5.135601,21.69123,-41.16615,58.20687,57.86384,10,0.0.0.0,10.139.104.221,1,0
2013-11-11 16:51:31.150,305,30.5,52.17036,4.456424,0,3.086681,102.9254,9.084436,10,1384185091,-0.1333466,0.3831787,-0.7759857,-4.640053,22.95247,-41.22356,57.23141,56.88839,10,0.0.0.0,10.139.104.221,1,0
2013-11-11 16:51:31.250,306,30.6,52.17036,4.456424,0,3.086681,102.9254,9.084436,10,1384185091,0.0001220703,0.3743286,-0.8143921,-2.382561,29.14899,-42.77386,56.79414,56.45111,10,0.0.0.0,10.139.104.221,1,0
2013-11-11 16:51:31.353,307,30.7,52.17036,4.456424,0,3.086681,102.9254,9.084436,10,1384185091,-0.0695343,0.4723511,-0.8256226,-5.851395,36.11322,-42.37193,68.06321,67.72018,10,0.0.0.0,10.139.104.221,1,0
2013-11-11 16:51:31.450,308,30.8,52.17036,4.456424,0,3.086681,102.9254,9.084436,10,1384185091,-0.0692749,0.6474762,-0.6965942,-11.90809,37.4293,-43.06095,139.9664,139.6233,10,0.0.0.0,10.139.104.221,1,0
2013-11-11 16:51:31.551,309,30.9,52.17036,4.456424,0,3.086681,102.9254,9.084436,10,1384185091,-0.5723724,1.171783,-0.7749023,-18.12997,35.72937,-38.1804,147.114,146.771,10,0.0.0.0,10.139.104.221,1,0
2013-11-11 16:51:31.658,310,31,52.17036,4.456424,0,3.086681,102.9254,9.084436,10,1384185091,-0.2310028,0.7907104,-0.5564423,-20.11216,33.53591,-37.60622,145.8776,145.5345,10,0.0.0.0,10.139.104.221,1,0
2013-11-11 16:51:31.755,311,31.1,52.17036,4.456424,0,3.086681,102.9254,9.084436,10,1384185091,-0.08828735,0.7682343,-0.4604187,-17.41417,32.165,-42.14226,146.1367,145.7937,10,0.0.0.0,10.139.104.221,1,0
2013-11-11 16:51:31.850,312,31.2,52.17036,4.456424,0,3.086681,102.9254,9.084436,10,1384185091,-0.1716766,0.7012177,-1.032059,-12.07328,32.54885,-46.33379,144.8249,144.4819,10,0.0.0.0,10.139.104.221,1,0
2013-11-11 16:51:31.950,313,31.3,52.17036,4.456424,0,3.086681,102.9254,9.084436,10,1384185091,-0.07513428,0.656311,-0.9205627,-9.815769,33.15205,-46.62088,112.9072,112.5642,10,0.0.0.0,10.139.104.221,1,0
2013-11-11 16:51:32.052,314,31.4,52.17036,4.456424,0,3.086681,102.9254,9.084436,10,1384185091,-0.1833038,0.3458862,-0.6865234,-8.49432,29.86186,-45.81702,70.59264,70.24961,10,0.0.0.0,10.139.104.221,1,0
2013-11-11 16:51:32.151,315,31.5,52.17036,4.456475,0,3.20966,100.6187,9.109419,10,1384185092,-0.2114105,-0.0280304,-0.601944,-2.823044,21.25253,-43.00352,63.08318,62.74015,10,0.0.0.0,10.139.104.221,1,0
2013-11-11 16:51:32.251,316,31.6,52.17036,4.456475,0,3.20966,100.6187,9.109419,10,1384185092,0.0145874,0.1083527,-0.7980652,0.04011917,22.89762,-43.2332,62.20002,61.85699,10,0.0.0.0,10.139.104.221,1,0
2013-11-11 16:51:32.350,317,31.7,52.17036,4.456475,0,3.20966,100.6187,9.109419,10,1384185092,-0.1276398,0.2027435,-0.7229156,-1.666767,27.22971,-44.09447,66.66399,66.32096,10,0.0.0.0,10.139.104.221,1,0
2013-11-11 16:51:32.451,318,31.8,52.17036,4.456475,0,3.20966,100.6187,9.109419,10,1384185092,0.003799438,0.8807373,-0.7855225,-5.300785,32.49401,-46.73571,99.51907,99.17604,10,0.0.0.0,10.139.104.221,1,0
2013-11-11 16:51:32.550,319,31.9,52.17036,4.456475,0,3.20966,100.6187,9.109419,10,1384185092,-0.2276001,1.179199,-0.9283752,-11.90809,31.94565,-46.3912,146.4613,146.1182,10,0.0.0.0,10.139.104.221,1,0
2013-11-11 16:51:32.649,320,32,52.17036,4.456475,0,3.20966,100.6187,9.109419,10,1384185092,-0.129837,0.8255463,-1.024429,-17.08381,30.41022,-43.74997,148.5138,148.1707,10,0.0.0.0,10.139.104.221,1,0
2013-11-11 16:51:32.751,321,32.1,52.17036,4.456475,0,3.20966,100.6187,9.109419,10,1384185092,-0.2961578,0.8414154,-0.2793579,-19.3413,28.38127,-40.82164,145.6574,145.3143,10,0.0.0.0,10.139.104.221,1,0
2013-11-11 16:51:32.854,322,32.2,52.17036,4.456475,0,3.20966,100.6187,9.109419,10,1384185092,-0.2342529,0.9878082,-0.816925,-18.95588,29.09415,-44.20931,147.7312,147.3881,10,0.0.0.0,10.139.104.221,1,0
2013-11-11 16:51:32.952,323,32.3,52.17036,4.456475,0,3.20966,100.6187,9.109419,10,1384185092,-0.163208,0.7945557,-0.8472748,-15.10162,29.53284,-46.85055,142.6219,142.2788,10,0.0.0.0,10.139.104.221,1,0
2013-11-11 16:51:33.091,324,32.4,52.17035,4.456536,0,3.78725,99.8135,9.136003,10,1384185093,-0.111969,0.5294495,-0.7636261,-6.62225,26.90069,-46.3912,66.59088,66.24786,10,0.0.0.0,10.139.104.221,1,0
2013-11-11 16:51:33.153,325,32.5,52.17035,4.456536,0,3.78725,99.8135,9.136003,10,1384185093,-0.09368896,0.1045837,-0.5881805,-3.924263,24.32338,-44.72607,58.2297,57.88667,10,0.0.0.0,10.139.104.221,1,0
2013-11-11 16:51:33.250,326,32.6,52.17035,4.456536,0,3.78725,99.8135,9.136003,10,1384185093,-0.1680756,0.1120605,-0.7880859,-3.869202,20.64933,-41.91259,57.714,57.37098,10,0.0.0.0,10.139.104.221,1,0
2013-11-11 16:51:33.350,327,32.7,52.17035,4.456536,0,3.78725,99.8135,9.136003,10,1384185093,0.03266907,0.2593231,-0.7068787,-5.025478,24.87174,-42.42934,61.79582,61.45279,10,0.0.0.0,10.139.104.221,1,0
2013-11-11 16:51:33.455,328,32.8,52.17035,4.456536,0,3.78725,99.8135,9.136003,10,1384185093,-0.06462097,0.7652893,-0.8419495,-8.329136,28.71029,-45.64477,88.21698,87.87395,10,0.0.0.0,10.139.104.221,1,0
2013-11-11 16:51:33.555,329,32.9,52.17035,4.456536,0,3.78725,99.8135,9.136003,10,1384185093,-0.2835083,1.086395,-0.7209778,-13.0093,31.39728,-44.32415,145.5719,145.2289,10,0.0.0.0,10.139.104.221,1,0
2013-11-11 16:51:33.650,330,33,52.17035,4.456536,0,3.78725,99.8135,9.136003,10,1384185093,-0.4656525,1.280563,-0.9412537,-17.08381,32.05532,-39.96037,145.4642,145.1212,10,0.0.0.0,10.139.104.221,1,0
2013-11-11 16:51:33.751,331,33.1,52.17035,4.456536,0,3.78725,99.8135,9.136003,10,1384185093,-0.1605682,0.9480896,-0.7240448,-17.46923,33.64558,-39.90295,147.0668,146.7238,10,0.0.0.0,10.139.104.221,1,0
2013-11-11 16:51:33.852,332,33.2,52.17035,4.456536,0,3.78725,99.8135,9.136003,10,1384185093,0.02911377,0.6595612,-0.6543732,-13.67003,34.79714,-43.74997,146.9964,146.6534,10,0.0.0.0,10.139.104.221,1,0
2013-11-11 16:51:33.950,333,33.3,52.17035,4.456536,0,3.78725,99.8135,9.136003,10,1384185093,-0.120163,0.5914917,-0.7307281,-8.769619,35.72936,-45.98927,142.7299,142.3868,10,0.0.0.0,10.139.104.221,1,0
2013-11-11 16:51:34.051,334,33.4,52.17035,4.456536,0,3.78725,99.8135,9.136003,10,1384185093,-0.03265381,0.5216217,-0.8080902,-5.52103,32.05532,-45.58734,62.43353,62.0905,10,0.0.0.0,10.139.104.221,1,0
2013-11-11 16:51:34.159,335,33.5,52.17035,4.456602,0,4.153821,99.83209,9.143021,10,1384185094,-0.1039734,-0.1375122,-0.4766083,-1.171219,23.99435,-41.97,58.27547,57.93244,10,0.0.0.0,10.139.104.221,1,0
2013-11-11 16:51:34.251,336,33.6,52.17035,4.456602,0,4.153821,99.83209,9.143021,10,1384185094,-0.074646,0.116394,-0.8626709,-0.8408546,20.92351,-41.74033,57.46087,57.11784,10,0.0.0.0,10.139.104.221,1,0
2013-11-11 16:51:34.350,337,33.7,52.17035,4.456602,0,4.153821,99.83209,9.143021,10,1384185094,-0.1410065,0.2965546,-0.7563171,-0.5655518,27.01036,-41.45325,61.20407,60.86104,10,0.0.0.0,10.139.104.221,1,0
2013-11-11 16:51:34.450,338,33.8,52.17035,4.456602,0,4.153821,99.83209,9.143021,10,1384185094,-0.1793671,0.5977173,-0.7105408,-4.36475,34.19394,-44.84091,76.89589,76.55286,10,0.0.0.0,10.139.104.221,1,0
2013-11-11 16:51:34.552,339,33.9,52.17035,4.456602,0,4.153821,99.83209,9.143021,10,1384185094,-0.1238556,0.9855194,-0.827179,-11.52266,32.3295,-45.18542,158.8826,158.5396,10,0.0.0.0,10.139.104.221,1,0
2013-11-11 16:51:34.657,340,34,52.17035,4.456602,0,4.153821,99.83209,9.143021,10,1384185094,-0.4503632,1.141876,-0.8989563,-15.98259,29.97153,-40.87906,156.5776,156.2346,10,0.0.0.0,10.139.104.221,1,0
2013-11-11 16:51:34.753,341,34.1,52.17035,4.456602,0,4.153821,99.83209,9.143021,10,1384185094,-0.1772003,0.776474,-0.6087494,-15.92753,29.80703,-40.24746,156.3751,156.0321,10,0.0.0.0,10.139.104.221,1,0
2013-11-11 16:51:34.849,342,34.2,52.17035,4.456602,0,4.153821,99.83209,9.143021,10,1384185094,-0.0630188,0.7088013,-0.7074432,-14.05546,29.03931,-43.34804,155.4229,155.0798,10,0.0.0.0,10.139.104.221,1,0
2013-11-11 16:51:34.952,343,34.3,52.17035,4.456602,0,4.153821,99.83209,9.143021,10,1384185094,-0.01017761,0.7207184,-0.6790466,-10.09108,30.24571,-46.33379,151.8972,151.5542,10,0.0.0.0,10.139.104.221,1,0
2013-11-11 16:51:35.093,344,34.4,52.17034,4.456668,0,3.711389,101.8042,9.168554,10,1384185095,-0.2284851,0.3728333,-0.5066528,-5.741272,24.04919,-46.62088,255.3674,255.0244,10,0.0.0.0,10.139.104.221,1,0
2013-11-11 16:51:35.153,345,34.5,52.17034,4.456668,0,3.711389,101.8042,9.168554,10,1384185095,-0.05276489,0.003768921,-0.51474,-2.217377,20.10096,-42.94611,255.7682,255.4251,10,0.0.0.0,10.139.104.221,1,0
2013-11-11 16:51:35.252,346,34.6,52.17034,4.456668,0,3.711389,101.8042,9.168554,10,1384185095,-0.3009949,0.04705811,-1.140869,-1.501583,20.59449,-42.08484,262.626,262.283,10,0.0.0.0,10.139.104.221,1,0
2013-11-11 16:51:35.353,347,34.7,52.17034,4.456668,0,3.711389,101.8042,9.168554,10,1384185095,-0.219223,0.5927429,-0.7019196,-3.64896,27.99742,-46.62088,91.34109,90.99807,10,0.0.0.0,10.139.104.221,1,0
2013-11-11 16:51:35.450,348,34.8,52.17034,4.456668,0,3.711389,101.8042,9.168554,10,1384185095,0.04077148,0.5440674,-0.9753265,-10.09108,29.9167,-47.25247,152.018,151.6749,10,0.0.0.0,10.139.104.221,1,0
2013-11-11 16:51:35.551,349,34.9,52.17034,4.456668,0,3.711389,101.8042,9.168554,10,1384185095,-0.3573761,0.9620056,-0.5895081,-15.81741,30.79408,-43.92222,154.7964,154.4534,10,0.0.0.0,10.139.104.221,1,0
2013-11-11 16:51:35.650,350,35,52.17034,4.456668,0,3.711389,101.8042,9.168554,10,1384185095,-0.4654694,0.9858398,-0.5666199,-18.01984,28.81997,-43.80738,150.604,150.2609,10,0.0.0.0,10.139.104.221,1,0
2013-11-11 16:51:35.750,351,35.1,52.17034,4.456668,0,3.711389,101.8042,9.168554,10,1384185095,-0.03063965,0.8445282,-0.7602386,-16.64332,28.76513,-45.47251,156.025,155.6819,10,0.0.0.0,10.139.104.221,1,0
2013-11-11 16:51:35.851,352,35.2,52.17034,4.456668,0,3.711389,101.8042,9.168554,10,1384185095,-0.009780884,0.7516785,-0.7141571,-12.18339,30.46507,-48.51567,156.7981,156.4551,10,0.0.0.0,10.139.104.221,1,0
2013-11-11 16:51:35.961,353,35.3,52.17034,4.456668,0,3.711389,101.8042,9.168554,10,1384185095,-0.09751892,0.4690552,-0.9289246,-6.95261,27.88774,-47.99891,227.2285,226.8855,10,0.0.0.0,10.139.104.221,1,0
2013-11-11 16:51:36.064,354,35.4,52.17034,4.456668,0,3.711389,101.8042,9.168554,10,1384185095,-0.1396179,0.1284485,-0.6439209,-2.547741,20.42999,-43.06095,250.9516,250.6086,10,0.0.0.0,10.139.104.221,1,0
2013-11-11 16:51:36.150,355,35.5,52.17033,4.45674,0,4.367053,102.174,9,10,1384185096,0.0453186,-0.1553345,-0.6054382,-1.887009,17.46881,-40.76422,254.3316,253.9886,10,0.0.0.0,10.139.104.221,1,0
2013-11-11 16:51:36.251,356,35.6,52.17033,4.45674,0,4.367053,102.174,9,10,1384185096,-0.1396332,0.177948,-0.6810455,-2.272438,21.14286,-42.77386,259.4138,259.0708,10,0.0.0.0,10.139.104.221,1,0
2013-11-11 16:51:36.353,357,35.7,52.17033,4.45674,0,4.367053,102.174,9,10,1384185096,-0.1928558,0.8121948,-0.6926575,-6.567188,27.61356,-45.64477,103.9983,103.6553,10,0.0.0.0,10.139.104.221,1,0
2013-11-11 16:51:36.450,358,35.8,52.17033,4.45674,0,4.367053,102.174,9,10,1384185096,-0.03100586,0.8723145,-0.8197021,-13.78016,28.54578,-45.35767,156.5185,156.1755,10,0.0.0.0,10.139.104.221,1,0
2013-11-11 16:51:36.553,359,35.9,52.17033,4.45674,0,4.367053,102.174,9,10,1384185096,-0.4936523,0.9839172,-0.8451691,-18.57045,27.94258,-41.28098,156.1346,155.7915,10,0.0.0.0,10.139.104.221,1,0
2013-11-11 16:51:36.655,360,36,52.17033,4.45674,0,4.367053,102.174,9,10,1384185096,-0.1517487,0.6484375,-0.5528412,-18.24009,27.83291,-41.39582,156.5225,156.1794,10,0.0.0.0,10.139.104.221,1,0
2013-11-11 16:51:36.750,361,36.1,52.17033,4.45674,0,4.367053,102.174,9,10,1384185096,0.01161194,0.8634491,-0.9528961,-15.5421,27.44905,-44.66866,158.4926,158.1496,10,0.0.0.0,10.139.104.221,1,0
2013-11-11 16:51:36.850,362,36.2,52.17033,4.45674,0,4.367053,102.174,9,10,1384185096,-0.07922363,0.6299286,-0.9312134,-10.47651,27.77807,-46.85055,154.7345,154.3914,10,0.0.0.0,10.139.104.221,1,0
2013-11-11 16:51:36.951,363,36.3,52.17033,4.45674,0,4.367053,102.174,9,10,1384185096,-0.1129456,0.3884277,-0.6902466,-6.016582,25.09109,-45.41509,242.8157,242.4727,10,0.0.0.0,10.139.104.221,1,0
2013-11-11 16:51:37.065,364,36.4,52.17033,4.45674,0,4.367053,102.174,9,10,1384185096,-0.07299805,-0.07653809,-0.6918182,-2.602802,20.37515,-40.93648,249.3639,249.0209,10,0.0.0.0,10.139.104.221,1,0
2013-11-11 16:51:37.151,365,36.5,52.17032,4.456812,0,4.197682,100.9391,9,10,1384185097,-0.1458588,0.239975,-1.080383,-0.7857933,18.01718,-38.23782,254.1969,253.8539,10,0.0.0.0,10.139.104.221,1,0
2013-11-11 16:51:37.257,366,36.6,52.17032,4.456812,0,4.197682,100.9391,9,10,1384185097,-0.1120911,0.1513824,-0.7490234,-1.22628,23.6105,-39.50102,252.5719,252.2289,10,0.0.0.0,10.139.104.221,1,0
2013-11-11 16:51:37.351,367,36.7,52.17032,4.456812,0,4.197682,100.9391,9,10,1384185097,-0.09066772,0.6282349,-0.7083282,-8.769619,26.84586,-43.2332,140.189,139.8459,10,0.0.0.0,10.139.104.221,1,0
2013-11-11 16:51:37.450,368,36.8,52.17032,4.456812,0,4.197682,100.9391,9,10,1384185097,-0.5426636,1.134384,-0.8467407,-16.2579,25.52977,-41.85516,156.7057,156.3627,10,0.0.0.0,10.139.104.221,1,0
2013-11-11 16:51:37.550,369,36.9,52.17032,4.456812,0,4.197682,100.9391,9,10,1384185097,-0.2792053,1.025589,-0.7363739,-20.66277,26.29749,-37.83589,153.2939,152.9508,10,0.0.0.0,10.139.104.221,1,0
2013-11-11 16:51:37.651,370,37,52.17032,4.456812,0,4.197682,100.9391,9,10,1384185097,-0.1282196,0.8034668,-0.4304657,-20.11216,25.74912,-38.52491,153.3591,153.016,10,0.0.0.0,10.139.104.221,1,0
2013-11-11 16:51:37.752,371,37.1,52.17032,4.456812,0,4.197682,100.9391,9,10,1384185097,-0.1661377,0.7555389,-0.8481598,-16.97368,27.6684,-41.68291,153.9277,153.5847,10,0.0.0.0,10.139.104.221,1,0
2013-11-11 16:51:37.852,372,37.2,52.17032,4.456812,0,4.197682,100.9391,9,10,1384185097,-0.1012115,0.4829254,-0.8072815,-10.69675,27.99742,-44.32415,82.47753,82.13451,10,0.0.0.0,10.139.104.221,1,0
2013-11-11 16:51:37.950,373,37.3,52.17032,4.456812,0,4.197682,100.9391,9,10,1384185097,-0.2259827,0.08305359,-0.6655579,-6.126698,25.52977,-42.42934,64.81669,64.47366,10,0.0.0.0,10.139.104.221,1,0
2013-11-11 16:51:38.065,374,37.4,52.17032,4.456812,0,4.197682,100.9391,9,10,1384185097,-0.09994507,-0.008148193,-0.7514648,-3.704018,17.41397,-39.90295,60.32244,59.97941,10,0.0.0.0,10.139.104.221,1,0
2013-11-11 16:51:38.150,375,37.5,52.17031,4.456888,0,4.38197,101.4116,9,10,1384185098,-1.525879e-05,-0.03544617,-0.633194,-3.924263,22.23959,-40.7068,64.67375,64.33073,10,0.0.0.0,10.139.104.221,1,0
2013-11-11 16:51:38.250,376,37.6,52.17031,4.456888,0,4.38197,101.4116,9,10,1384185098,-0.3290558,1.030167,-0.8816376,-6.732365,31.17794,-44.89833,69.21859,68.87556,10,0.0.0.0,10.139.104.221,1,0
2013-11-11 16:51:38.350,377,37.7,52.17031,4.456888,0,4.38197,101.4116,9,10,1384185098,-0.08898926,0.9602814,-0.8386688,-14.49594,31.45212,-45.64477,160.4873,160.1443,10,0.0.0.0,10.139.104.221,1,0
2013-11-11 16:51:38.452,378,37.8,52.17031,4.456888,0,4.38197,101.4116,9,10,1384185098,-0.2333221,0.8233795,-0.8408203,-20.22228,30.79408,-41.16615,156.0756,155.7325,10,0.0.0.0,10.139.104.221,1,0
2013-11-11 16:51:38.555,379,37.9,52.17031,4.456888,0,4.38197,101.4116,9,10,1384185098,-0.3154297,0.7479858,-0.3882294,-21.65386,30.79408,-40.47713,153.687,153.344,10,0.0.0.0,10.139.104.221,1,0
2013-11-11 16:51:38.650,380,38,52.17031,4.456888,0,4.38197,101.4116,9,10,1384185098,-0.005065918,0.8284149,-1.083328,-19.23119,31.56179,-44.72607,152.4469,152.1039,10,0.0.0.0,10.139.104.221,1,0
2013-11-11 16:51:38.751,381,38.1,52.17031,4.456888,0,4.38197,101.4116,9,10,1384185098,-0.2238617,0.6122284,-0.8265839,-15.21174,28.21677,-50.41047,158.0958,157.7527,10,0.0.0.0,10.139.104.221,1,0
2013-11-11 16:51:38.850,382,38.2,52.17031,4.456888,0,4.38197,101.4116,9,10,1384185098,0.05729675,0.2851562,-0.8217163,-6.897549,24.32338,-52.19043,233.9845,233.6414,10,0.0.0.0,10.139.104.221,1,0
2013-11-11 16:51:38.950,383,38.3,52.17031,4.456888,0,4.38197,101.4116,9,10,1384185098,-0.1859283,-0.1524811,-0.3639374,-1.666767,21.52671,-47.30989,247.5374,247.1943,10,0.0.0.0,10.139.104.221,1,0
2013-11-11 16:51:39.060,384,38.4,52.17031,4.456888,0,4.38197,101.4116,9,10,1384185098,-0.02334595,-0.03022766,-0.7559814,-1.061096,22.89762,-48.17116,252.988,252.645,10,0.0.0.0,10.139.104.221,1,0
2013-11-11 16:51:39.155,385,38.5,52.1703,4.456957,0,4.235737,101.7619,9,10,1384185099,-0.119278,0.5505066,-0.7228394,-3.373653,27.0652,-50.12338,246.7464,246.4034,10,0.0.0.0,10.139.104.221,1,0
2013-11-11 16:51:39.253,386,38.6,52.1703,4.456957,0,4.235737,101.7619,9,10,1384185099,-0.1307678,0.9796295,-0.9518127,-11.96315,30.57473,-51.38658,155.6432,155.3002,10,0.0.0.0,10.139.104.221,1,0
2013-11-11 16:51:39.349,387,38.7,52.1703,4.456957,0,4.235737,101.7619,9,10,1384185099,-0.3215637,0.9330597,-0.7957001,-20.38746,32.05532,-46.16152,155.7942,155.4512,10,0.0.0.0,10.139.104.221,1,0
2013-11-11 16:51:39.450,388,38.8,52.1703,4.456957,0,4.235737,101.7619,9,10,1384185099,-0.2617035,0.9179688,-0.7087555,-20.93808,33.3714,-44.32415,157.9143,157.5712,10,0.0.0.0,10.139.104.221,1,0
2013-11-11 16:51:39.551,389,38.9,52.1703,4.456957,0,4.235737,101.7619,9,10,1384185099,-0.2249756,0.8637543,-0.571228,-18.29515,33.04238,-46.73571,158.9575,158.6144,10,0.0.0.0,10.139.104.221,1,0
2013-11-11 16:51:39.651,390,39,52.1703,4.456957,0,4.235737,101.7619,9,10,1384185099,-0.2574768,0.5200958,-0.7135468,-14.05546,31.01343,-50.58273,157.6529,157.3099,10,0.0.0.0,10.139.104.221,1,0
2013-11-11 16:51:39.757,391,39.1,52.1703,4.456957,0,4.235737,101.7619,9,10,1384185099,-0.1788483,0.62854,-0.9783478,-10.64169,29.478,-53.45364,166.1047,165.7617,10,0.0.0.0,10.139.104.221,1,0
2013-11-11 16:51:39.851,392,39.2,52.1703,4.456957,0,4.235737,101.7619,9,10,1384185099,-0.142334,0.1057434,-0.5669556,-4.584995,23.22664,-49.08985,243.1125,242.7695,10,0.0.0.0,10.139.104.221,1,0
2013-11-11 16:51:39.953,393,39.3,52.1703,4.456957,0,4.235737,101.7619,9,10,1384185099,0.0489502,-0.1868134,-0.6199646,-1.721828,17.85267,-46.33379,249.7303,249.3873,10,0.0.0.0,10.139.104.221,1,0
2013-11-11 16:51:40.052,394,39.4,52.1703,4.456957,0,4.235737,101.7619,9,10,1384185099,-0.02189636,0.1808167,-0.8645935,-0.730732,22.56861,-46.44862,247.4564,247.1134,10,0.0.0.0,10.139.104.221,1,0
2013-11-11 16:51:40.150,395,39.5,52.17028,4.457025,0,4.281777,101.3421,9,10,1384185100,-0.1114655,0.8404541,-0.7381744,-5.576088,29.9167,-47.48215,221.1753,220.8323,10,0.0.0.0,10.139.104.221,1,0
2013-11-11 16:51:40.251,396,39.6,52.17028,4.457025,0,4.281777,101.3421,9,10,1384185100,-0.2005463,0.9414673,-0.8945312,-14.38583,31.34245,-46.67829,161.47,161.127,10,0.0.0.0,10.139.104.221,1,0
2013-11-11 16:51:40.354,397,39.7,52.17028,4.457025,0,4.281777,101.3421,9,10,1384185100,-0.233429,1.105743,-0.9574127,-18.62551,30.5199,-44.43898,160.383,160.04,10,0.0.0.0,10.139.104.221,1,0
2013-11-11 16:51:40.450,398,39.8,52.17028,4.457025,0,4.281777,101.3421,9,10,1384185100,-0.2314911,0.845871,-0.5108185,-18.18503,31.06826,-42.94611,159.1119,158.7689,10,0.0.0.0,10.139.104.221,1,0
2013-11-11 16:51:40.551,399,39.9,52.17028,4.457025,0,4.281777,101.3421,9,10,1384185100,-0.06591797,0.8416138,-0.7262878,-12.95425,29.14898,-44.72607,161.4843,161.1412,10,0.0.0.0,10.139.104.221,1,0
2013-11-11 16:51:40.650,400,40,52.17028,4.457025,0,4.281777,101.3421,9,10,1384185100,-0.0446167,0.6696167,-1.006149,-8.989857,30.79408,-48.63051,157.127,156.7839,10,0.0.0.0,10.139.104.221,1,0
2013-11-11 16:51:40.751,401,40.1,52.17028,4.457025,0,4.281777,101.3421,9,10,1384185100,-0.2088776,0.3209839,-0.7965698,-3.153408,28.05226,-47.48215,241.1659,240.8229,10,0.0.0.0,10.139.104.221,1,0
2013-11-11 16:51:40.850,402,40.2,52.17028,4.457025,0,4.281777,101.3421,9,10,1384185100,0.02511597,-0.2031708,-0.3172302,1.36158,21.36221,-42.19968,245.2955,244.9525,10,0.0.0.0,10.139.104.221,1,0
2013-11-11 16:51:40.956,403,40.3,52.17028,4.457025,0,4.281777,101.3421,9,10,1384185100,-0.0206604,-0.0355072,-0.9039459,0.7008514,21.47188,-41.51066,251.4473,251.1042,10,0.0.0.0,10.139.104.221,1,0
2013-11-11 16:51:41.066,404,40.4,52.17028,4.457025,0,4.281777,101.3421,9,10,1384185100,-0.2155304,0.5322266,-1.010376,-4.254627,26.40716,-42.88869,231.4987,231.1557,10,0.0.0.0,10.139.104.221,1,0
2013-11-11 16:51:41.152,405,40.5,52.17027,4.457088,0,4.458622,101.6992,9,10,1384185101,0.02540588,0.6707306,-0.7274323,-10.03601,27.88774,-45.70218,164.4216,164.0786,10,0.0.0.0,10.139.104.221,1,0
2013-11-11 16:51:41.257,406,40.6,52.17027,4.457088,0,4.458622,101.6992,9,10,1384185101,-0.3029633,1.061523,-0.9215393,-13.33967,26.90069,-41.68291,161.432,161.089,10,0.0.0.0,10.139.104.221,1,0
2013-11-11 16:51:41.385,407,40.7,52.17027,4.457088,0,4.458622,101.6992,9,10,1384185101,-0.2471466,1.156326,-0.9059906,-14.16558,27.28455,-39.78812,159.6058,159.2628,10,0.0.0.0,10.139.104.221,1,0
2013-11-11 16:51:41.452,408,40.8,52.17027,4.457088,0,4.458622,101.6992,9,10,1384185101,-0.1400757,0.578598,-0.4698334,-15.37693,27.83291,-39.21394,156.4709,156.1279,10,0.0.0.0,10.139.104.221,1,0
2013-11-11 16:51:41.550,409,40.9,52.17027,4.457088,0,4.458622,101.6992,9,10,1384185101,-0.03614807,0.665863,-0.9681549,-11.52266,28.38128,-44.95575,148.3973,148.0542,10,0.0.0.0,10.139.104.221,1,0
2013-11-11 16:51:41.656,410,41,52.17027,4.457088,0,4.458622,101.6992,9,10,1384185101,-0.1578827,0.5206299,-0.8699188,-8.604435,28.54578,-45.47251,113.8019,113.4589,10,0.0.0.0,10.139.104.221,1,0
2013-11-11 16:51:41.750,411,41.1,52.17027,4.457088,0,4.458622,101.6992,9,10,1384185101,-0.003601074,0.004241943,-0.4610138,-4.36475,23.22664,-43.11836,62.66838,62.32535,10,0.0.0.0,10.139.104.221,1,0
2013-11-11 16:51:41.850,412,41.2,52.17027,4.457088,0,4.458622,101.6992,9,10,1384185101,-0.2220306,0.0322113,-0.6585846,-3.704018,17.3043,-38.41007,60.0416,59.69857,10,0.0.0.0,10.139.104.221,1,0
2013-11-11 16:51:41.950,413,41.3,52.17027,4.457088,0,4.458622,101.6992,9,10,1384185101,-0.123642,0.08647156,-0.6038208,-2.988228,21.63639,-40.64938,59.79971,59.45668,10,0.0.0.0,10.139.104.221,1,0
2013-11-11 16:51:42.060,414,41.4,52.17027,4.457088,0,4.458622,101.6992,9,10,1384185101,-0.1024475,0.3330688,-0.6306763,-7.888645,27.0652,-44.95575,220.1524,219.8094,10,0.0.0.0,10.139.104.221,1,0
2013-11-11 16:51:42.159,415,41.5,52.17027,4.457142,0,4.192774,102.4122,9,10,1384185102,-0.2860565,0.9243469,-1.033096,-15.48705,27.61356,-45.87444,159.9963,159.6533,10,0.0.0.0,10.139.104.221,1,0
2013-11-11 16:51:42.259,416,41.6,52.17027,4.457142,0,4.192774,102.4122,9,10,1384185102,-0.2287292,0.7807007,-0.796875,-18.62551,29.09415,-41.91259,157.7736,157.4305,10,0.0.0.0,10.139.104.221,1,0
2013-11-11 16:51:42.354,417,41.7,52.17027,4.457142,0,4.192774,102.4122,9,10,1384185102,-0.4303741,0.8489838,-0.4940796,-18.84576,29.3135,-40.0752,151.935,151.592,10,0.0.0.0,10.139.104.221,1,0
2013-11-11 16:51:42.454,418,41.8,52.17027,4.457142,0,4.192774,102.4122,9,10,1384185102,-0.02706909,0.8738403,-0.8586273,-14.27571,27.72324,-44.84091,151.4312,151.0882,10,0.0.0.0,10.139.104.221,1,0
2013-11-11 16:51:42.550,419,41.9,52.17027,4.457142,0,4.192774,102.4122,9,10,1384185102,-0.2106476,0.554245,-0.7261047,-11.13723,26.79102,-47.76924,150.6135,150.2705,10,0.0.0.0,10.139.104.221,1,0
2013-11-11 16:51:42.650,420,42,52.17027,4.457142,0,4.192774,102.4122,9,10,1384185102,-0.09558105,-0.1821594,-0.6390381,-4.419811,23.93952,-48.57309,247.1461,246.8031,10,0.0.0.0,10.139.104.221,1,0
2013-11-11 16:51:42.757,421,42.1,52.17027,4.457142,0,4.192774,102.4122,9,10,1384185102,-0.1555939,-0.1798706,-0.627594,-1.006039,18.78489,-41.79775,249.0412,248.6982,10,0.0.0.0,10.139.104.221,1,0
2013-11-11 16:51:42.854,422,42.2,52.17027,4.457142,0,4.192774,102.4122,9,10,1384185102,-0.004730225,0.1280518,-0.8244629,-1.061096,20.92351,-41.28098,254.6279,254.2849,10,0.0.0.0,10.139.104.221,1,0
2013-11-11 16:51:43.091,423,42.3,52.17027,4.457142,0,4.192774,102.4122,9,10,1384185102,0.04164124,0.4563141,-0.732666,-2.878105,29.53284,-45.24284,246.3092,245.9662,10,0.0.0.0,10.139.104.221,1,0
2013-11-11 16:51:43.227,424,42.4,52.17027,4.457142,0,4.192774,102.4122,9,10,1384185102,-0.1335449,1.117813,-1.024231,-9.54047,30.35539,-44.49641,157.0411,156.6981,10,0.0.0.0,10.139.104.221,1,0
2013-11-11 16:51:43.250,425,42.5,52.17025,4.457197,0,3.750539,100.2694,9,10,1384185103,-0.2530975,0.7850647,-0.6898956,-17.74454,30.30056,-39.27135,149.9508,149.6077,10,0.0.0.0,10.139.104.221,1,0
2013-11-11 16:51:43.357,426,42.6,52.17025,4.457197,0,3.750539,100.2694,9,10,1384185103,-0.2958984,0.9195099,-0.7234955,-16.36802,28.60062,-41.39582,150.0557,149.7126,10,0.0.0.0,10.139.104.221,1,0
2013-11-11 16:51:43.460,427,42.7,52.17025,4.457197,0,3.750539,100.2694,9,10,1384185103,-0.0869751,0.8544769,-0.9727325,-13.67003,26.24265,-45.01316,150.6424,150.2994,10,0.0.0.0,10.139.104.221,1,0
2013-11-11 16:51:43.571,428,42.8,52.17025,4.457197,0,3.750539,100.2694,9,10,1384185103,-0.2275085,0.5102081,-0.7698669,-8.163944,20.32031,-49.03243,150.7009,150.3579,10,0.0.0.0,10.139.104.221,1,0
2013-11-11 16:51:43.650,429,42.9,52.17025,4.457197,0,3.750539,100.2694,9,10,1384185103,-0.08267212,-0.3815002,-0.6082916,-1.171219,16.86561,-46.90797,242.1974,241.8543,10,0.0.0.0,10.139.104.221,1,0
2013-11-11 16:51:43.771,430,43,52.17025,4.457197,0,3.750539,100.2694,9,10,1384185103,0.05911255,0.03495789,-0.6029816,3.619076,16.48176,-42.48677,246.5032,246.1602,10,0.0.0.0,10.139.104.221,1,0
2013-11-11 16:51:43.854,431,43.1,52.17025,4.457197,0,3.750539,100.2694,9,10,1384185103,-0.2933502,0.3848724,-0.9411621,1.857128,22.07508,-43.29062,241.2309,240.8878,10,0.0.0.0,10.139.104.221,1,0
2013-11-11 16:51:44.003,432,43.2,52.17025,4.457197,0,3.750539,100.2694,9,10,1384185103,-0.09608459,0.8529205,-0.8384094,-4.309689,29.31349,-46.73571,172.8922,172.5491,10,0.0.0.0,10.139.104.221,1,0
2013-11-11 16:51:44.197,433,43.3,52.17025,4.457197,0,3.750539,100.2694,9,10,1384185103,-0.1087952,0.8622742,-0.8073273,-12.29351,29.9167,-43.46288,156.3709,156.0278,10,0.0.0.0,10.139.104.221,1,0
2013-11-11 16:51:44.251,434,43.4,52.17025,4.457197,0,3.750539,100.2694,9,10,1384185103,-0.1910095,0.8282471,-0.7510986,-13.83522,30.79408,-39.90295,155.7586,155.4155,10,0.0.0.0,10.139.104.221,1,0
2013-11-11 16:51:44.351,435,43.5,52.17025,4.457263,0,4.143688,99.51366,9,10,1384185104,-0.2243042,0.7428894,-0.5368042,-13.61497,31.1231,-42.42934,155.5953,155.2523,10,0.0.0.0,10.139.104.221,1,0
2013-11-11 16:51:44.455,436,43.6,52.17025,4.457263,0,4.143688,99.51366,9,10,1384185104,-0.1178589,0.5514679,-0.8308868,-8.604435,28.76513,-50.18079,155.5608,155.2178,10,0.0.0.0,10.139.104.221,1,0
2013-11-11 16:51:44.614,437,43.7,52.17025,4.457263,0,4.143688,99.51366,9,10,1384185104,-0.09239197,0.4738312,-0.8218231,-6.512119,26.24265,-49.49178,232.0575,231.7144,10,0.0.0.0,10.139.104.221,1,0
2013-11-11 16:51:44.649,438,43.8,52.17025,4.457263,0,4.143688,99.51366,9,10,1384185104,-0.06054688,-0.2171326,-0.4285278,-1.22628,21.1977,-45.93185,249.632,249.289,10,0.0.0.0,10.139.104.221,1,0
2013-11-11 16:51:44.761,439,43.9,52.17025,4.457263,0,4.143688,99.51366,9,10,1384185104,-0.06341553,0.07905579,-0.6415405,0.7008514,18.07201,-43.00352,250.7724,250.4293,10,0.0.0.0,10.139.104.221,1,0
2013-11-11 16:51:44.855,440,44,52.17025,4.457263,0,4.143688,99.51366,9,10,1384185104,-0.1657104,0.5697632,-0.8574066,-1.556644,24.26854,-46.73571,244.3909,244.0479,10,0.0.0.0,10.139.104.221,1,0
2013-11-11 16:51:44.950,441,44.1,52.17025,4.457263,0,4.143688,99.51366,9,10,1384185104,0.01678467,0.5327911,-0.870224,-8.38419,26.35233,-47.6544,167.9173,167.5743,10,0.0.0.0,10.139.104.221,1,0
2013-11-11 16:51:45.088,442,44.2,52.17025,4.457263,0,4.143688,99.51366,9,10,1384185104,0.01678467,0.5327911,-0.870224,-13.11943,26.462,-45.70218,162.4566,162.1136,10,0.0.0.0,10.139.104.221,1,0
2013-11-11 16:51:45.150,443,44.3,52.17024,4.457323,0,4.070827,100.899,9,10,1384185105,-0.2483368,0.8101501,-0.6071777,-16.2579,28.49095,-41.28098,160.393,160.0499,10,0.0.0.0,10.139.104.221,1,0
2013-11-11 16:51:45.254,444,44.4,52.17024,4.457323,0,4.070827,100.899,9,10,1384185105,-0.04423523,0.8108673,-0.9471283,-16.31296,27.77807,-40.53455,156.8594,156.5164,10,0.0.0.0,10.139.104.221,1,0
2013-11-11 16:51:45.354,445,44.5,52.17024,4.457323,0,4.070827,100.899,9,10,1384185105,-0.1866455,0.8905029,-0.5545654,-15.10162,26.462,-43.63513,157.3241,156.981,10,0.0.0.0,10.139.104.221,1,0
2013-11-11 16:51:45.453,446,44.6,52.17024,4.457323,0,4.070827,100.899,9,10,1384185105,-0.07659912,0.6927643,-0.5662842,-15.04656,25.09109,-45.07059,162.4061,162.063,10,0.0.0.0,10.139.104.221,1,0
2013-11-11 16:51:45.559,447,44.7,52.17024,4.457323,0,4.070827,100.899,9,10,1384185105,-0.172821,0.7276764,-0.7010956,-15.21174,24.04919,-44.43898,162.6687,162.3257,10,0.0.0.0,10.139.104.221,1,0
2013-11-11 16:51:45.659,448,44.8,52.17024,4.457323,0,4.070827,100.899,9,10,1384185105,-0.2845459,0.9483795,-0.8569336,-16.91863,24.76207,-43.34804,157.5661,157.2231,10,0.0.0.0,10.139.104.221,1,0
2013-11-11 16:51:45.844,449,44.9,52.17024,4.457323,0,4.070827,100.899,9,10,1384185105,-0.1811371,0.6946259,-0.5910339,-17.24899,25.8588,-42.88869,155.7329,155.3899,10,0.0.0.0,10.139.104.221,1,0
2013-11-11 16:51:45.952,450,45,52.17024,4.457323,0,4.070827,100.899,9,10,1384185105,-0.1252747,0.7229767,-0.6814423,-16.03765,24.32338,-44.38157,162.3787,162.0357,10,0.0.0.0,10.139.104.221,1,0
2013-11-11 16:51:46.084,451,45.1,52.17024,4.457323,0,4.070827,100.899,9,10,1384185105,-0.1252747,0.7229767,-0.6814423,-16.03765,24.10403,-44.03706,161.2752,160.9322,10,0.0.0.0,10.139.104.221,1,0
2013-11-11 16:51:46.150,452,45.2,52.17023,4.457372,0.431118,4.080338,100.0917,9,10,1384185106,-0.08876038,0.7197266,-0.7445526,-16.69838,23.44599,-45.41509,160.2093,159.8662,10,0.0.0.0,10.139.104.221,1,0
2013-11-11 16:51:46.254,453,45.3,52.17023,4.457372,0.431118,4.080338,100.0917,9,10,1384185106,-0.128418,0.7320557,-0.6571198,-16.80851,23.33632,-43.57771,159.9053,159.5622,10,0.0.0.0,10.139.104.221,1,0
2013-11-11 16:51:46.350,454,45.4,52.17023,4.457372,0.431118,4.080338,100.0917,9,10,1384185106,-0.1660156,0.6300812,-0.6706543,-19.50649,23.72017,-42.94611,151.0341,150.6911,10,0.0.0.0,10.139.104.221,1,0
2013-11-11 16:51:46.450,455,45.5,52.17023,4.457372,0.431118,4.080338,100.0917,9,10,1384185106,-0.1204834,0.7415466,-0.7798004,-19.01094,24.32337,-43.2332,148.7385,148.3954,10,0.0.0.0,10.139.104.221,1,0
2013-11-11 16:51:46.551,456,45.6,52.17023,4.457372,0.431118,4.080338,100.0917,9,10,1384185106,-0.2099915,0.7229156,-0.6574249,-19.17612,24.92658,-42.60161,149.2539,148.9109,10,0.0.0.0,10.139.104.221,1,0
2013-11-11 16:51:46.653,457,45.7,52.17023,4.457372,0.431118,4.080338,100.0917,9,10,1384185106,-0.1678772,0.6627502,-0.6288757,-17.7996,25.4201,-42.42934,151.5284,151.1854,10,0.0.0.0,10.139.104.221,1,0
2013-11-11 16:51:46.755,458,45.8,52.17023,4.457372,0.431118,4.080338,100.0917,9,10,1384185106,-0.2417603,0.8858948,-0.7534027,-18.95588,26.35232,-42.2571,147.8263,147.4832,10,0.0.0.0,10.139.104.221,1,0
2013-11-11 16:51:46.850,459,45.9,52.17023,4.457372,0.431118,4.080338,100.0917,9,10,1384185106,-0.01229858,0.5129242,-0.6434326,-17.68948,27.39421,-41.85516,146.0658,145.7227,10,0.0.0.0,10.139.104.221,1,0
2013-11-11 16:51:46.962,460,46,52.17023,4.457372,0.431118,4.080338,100.0917,9,10,1384185106,-0.2731934,0.5708313,-0.6494904,-16.42308,28.43611,-42.48677,150.6529,150.3098,10,0.0.0.0,10.139.104.221,1,0
2013-11-11 16:51:47.096,461,46.1,52.17023,4.457412,0,2.635032,74.43846,9,10,1384185107,-0.1838684,0.9121552,-0.8583832,-17.57936,28.16193,-41.51066,148.4935,148.1504,10,0.0.0.0,10.139.104.221,1,0
2013-11-11 16:51:47.280,462,46.2,52.17023,4.457412,0,2.635032,74.43846,9,10,1384185107,-0.3056335,0.7444763,-0.6461792,-15.65223,28.87481,-43.06095,150.7803,150.4373,10,0.0.0.0,10.139.104.221,1,0
2013-11-11 16:51:47.355,463,46.3,52.17023,4.457412,0,2.635032,74.43846,9,10,1384185107,-0.2392426,0.5622253,-0.3338928,-17.63442,29.64252,-42.37193,152.5154,152.1724,10,0.0.0.0,10.139.104.221,1,0
2013-11-11 16:51:47.450,464,46.4,52.17023,4.457412,0,2.635032,74.43846,9,10,1384185107,-0.1597595,0.8390808,-0.7792358,-19.39637,28.65545,-42.48677,155.1381,154.7951,10,0.0.0.0,10.139.104.221,1,0
2013-11-11 16:51:47.582,465,46.5,52.17023,4.457412,0,2.635032,74.43846,9,10,1384185107,-0.09703064,0.9416809,-0.8610229,-17.74454,28.98448,-43.52029,158.7549,158.4119,10,0.0.0.0,10.139.104.221,1,0
2013-11-11 16:51:47.650,466,46.6,52.17023,4.457412,0,2.635032,74.43846,9,10,1384185107,-0.2586975,0.664444,-0.5318756,-17.19393,28.65545,-42.94611,159.1768,158.8338,10,0.0.0.0,10.139.104.221,1,0
2013-11-11 16:51:47.752,467,46.7,52.17023,4.457412,0,2.635032,74.43846,9,10,1384185107,-0.1646729,0.6815491,-0.5948334,-20.27734,26.13298,-43.06095,154.3367,153.9937,10,0.0.0.0,10.139.104.221,1,0
2013-11-11 16:51:47.852,468,46.8,52.17023,4.457412,0,2.635032,74.43846,9,10,1384185107,-0.2172699,0.8270569,-0.8310242,-21.15832,26.24265,-44.32415,151.8155,151.4724,10,0.0.0.0,10.139.104.221,1,0
2013-11-11 16:51:47.952,469,46.9,52.17023,4.457412,0,2.635032,74.43846,9,10,1384185107,-0.1816101,0.6460876,-0.664917,-18.29515,26.462,-45.35767,154.0077,153.6647,10,0.0.0.0,10.139.104.221,1,0
2013-11-11 16:51:48.059,470,47,52.17023,4.457412,0,2.635032,74.43846,9,10,1384185107,-0.1636963,0.7021027,-0.7000275,-16.80851,25.96847,-43.46288,148.4401,148.0971,10,0.0.0.0,10.139.104.221,1,0
2013-11-11 16:51:48.152,471,47.1,52.17024,4.457441,0.4810715,2.153691,71.27968,9,10,1384185108,-0.1720734,0.7047119,-0.7516632,-16.80851,27.72324,-44.84091,146.5401,146.1971,10,0.0.0.0,10.139.104.221,1,0
2013-11-11 16:51:48.254,472,47.2,52.17024,4.457441,0.4810715,2.153691,71.27968,9,10,1384185108,-0.1858063,0.6965332,-0.824707,-16.31296,28.32644,-45.93185,151.1609,150.8178,10,0.0.0.0,10.139.104.221,1,0
2013-11-11 16:51:48.350,473,47.3,52.17024,4.457441,0.4810715,2.153691,71.27968,9,10,1384185108,-0.0856781,0.8052368,-1.01152,-14.44088,28.76513,-46.16152,150.8955,150.5525,10,0.0.0.0,10.139.104.221,1,0
2013-11-11 16:51:48.450,474,47.4,52.17024,4.457441,0.4810715,2.153691,71.27968,9,10,1384185108,-0.1219177,0.6295624,-0.9566956,-10.64169,29.58768,-48.05633,132.0252,131.6822,10,0.0.0.0,10.139.104.221,1,0
2013-11-11 16:51:48.563,475,47.5,52.17024,4.457441,0.4810715,2.153691,71.27968,9,10,1384185108,-0.1683044,-0.04536438,-0.5841827,-5.906452,27.0652,-43.34804,42.28483,41.9418,10,0.0.0.0,10.139.104.221,1,0
2013-11-11 16:51:48.660,476,47.6,52.17024,4.457441,0.4810715,2.153691,71.27968,9,10,1384185108,0.04161072,-0.06292725,-0.6622009,-4.970421,22.62345,-40.76422,41.7594,41.41637,10,0.0.0.0,10.139.104.221,1,0
2013-11-11 16:51:48.753,477,47.7,52.17024,4.457441,0.4810715,2.153691,71.27968,9,10,1384185108,0.07444763,0.1484222,-0.775528,-3.538837,27.12004,-40.99389,151.8291,151.4861,11,0.0.0.0,10.139.104.221,1,0
2013-11-11 16:51:48.851,478,47.8,52.17024,4.457441,0.4810715,2.153691,71.27968,9,10,1384185108,-0.2536621,0.6302338,-0.8481903,-7.007671,32.7682,-42.54418,154.1816,153.8385,11,0.0.0.0,10.139.104.221,1,0
2013-11-11 16:51:48.950,479,47.9,52.17024,4.457441,0.4810715,2.153691,71.27968,9,10,1384185108,-0.1128082,0.9066315,-0.7724152,-13.55992,32.60369,-41.91259,155.0964,154.7533,11,0.0.0.0,10.139.104.221,1,0
2013-11-11 16:51:49.092,480,48,52.17024,4.457441,0.4810715,2.153691,71.27968,9,10,1384185108,-0.106781,0.8956146,-0.7889099,-17.24899,30.24572,-38.75459,152.8912,152.5482,11,0.0.0.0,10.139.104.221,1,0
2013-11-11 16:51:49.154,481,48.1,52.17025,4.457495,0,3.388034,81.08802,9.085951,10,1384185109,-0.3648071,0.9477692,-0.5583496,-16.31296,29.97153,-38.58234,152.1432,151.8001,11,0.0.0.0,10.139.104.221,1,0
2013-11-11 16:51:49.472,482,48.2,52.17025,4.457495,0,3.388034,81.08802,9.085951,10,1384185109,0.01625061,0.7831879,-0.7384796,-14.82632,29.80702,-40.13262,152.9226,152.5796,11,0.0.0.0,10.139.104.221,1,0
2013-11-11 16:51:49.600,483,48.3,52.17025,4.457495,0,3.388034,81.08802,9.085951,10,1384185109,-0.09379578,0.637207,-0.6976471,-7.007671,30.13604,-44.38157,152.7054,152.3623,11,0.0.0.0,10.139.104.221,1,0
2013-11-11 16:51:49.651,484,48.4,52.17025,4.457495,0,3.388034,81.08802,9.085951,10,1384185109,-0.0821991,-0.02740479,-0.7902985,-1.006039,27.22971,-41.45325,152.8086,152.4656,11,0.0.0.0,10.139.104.221,1,0
2013-11-11 16:51:49.760,485,48.5,52.17025,4.457495,0,3.388034,81.08802,9.085951,10,1384185109,0.03742981,0.1919861,-0.7952728,-3.318596,29.75219,-42.37193,154.0915,153.7485,11,0.0.0.0,10.139.104.221,1,0
2013-11-11 16:51:49.855,486,48.6,52.17025,4.457495,0,3.388034,81.08802,9.085951,10,1384185109,-0.136673,0.7242126,-0.8966522,-6.842495,32.60368,-42.60161,155.3684,155.0253,11,0.0.0.0,10.139.104.221,1,0
2013-11-11 16:51:49.953,487,48.7,52.17025,4.457495,0,3.388034,81.08802,9.085951,10,1384185109,-0.08627319,0.7689514,-0.6989136,-12.89919,33.70041,-42.02743,155.1664,154.8233,11,0.0.0.0,10.139.104.221,1,0
2013-11-11 16:51:50.059,488,48.8,52.17025,4.457495,0,3.388034,81.08802,9.085951,10,1384185109,-0.4530792,1.312622,-0.9344635,-17.30406,34.68747,-37.43398,152.1006,151.7575,11,0.0.0.0,10.139.104.221,1,0
2013-11-11 16:51:50.183,489,48.9,52.17025,4.457556,0,3.388034,81.80036,9.214627,10,1384185110,-0.2601929,1.248505,-0.7923889,-18.18503,34.24878,-37.89332,150.1566,149.8136,11,0.0.0.0,10.139.104.221,1,0
2013-11-11 16:51:50.250,490,49,52.17025,4.457556,0,3.388034,81.80036,9.214627,10,1384185110,-0.04145813,0.6343384,-0.8999329,-16.64332,33.81009,-38.92684,152.8955,152.5525,11,0.0.0.0,10.139.104.221,1,0
2013-11-11 16:51:50.351,491,49.1,52.17025,4.457556,0,3.388034,81.80036,9.214627,10,1384185110,-0.08447266,0.5724182,-1.797562,-15.76235,32.71336,-39.7307,156.4368,156.0938,11,0.0.0.0,10.139.104.221,1,0
2013-11-11 16:51:50.450,492,49.2,52.17025,4.457556,0,3.388034,81.80036,9.214627,10,1384185110,-0.1893921,0.7213135,-0.790741,-12.56881,31.83598,-41.91259,160.2739,159.9308,11,0.0.0.0,10.139.104.221,1,0
2013-11-11 16:51:50.560,493,49.3,52.17025,4.457556,0,3.388034,81.80036,9.214627,10,1384185110,-0.05096436,0.4083405,-0.4038239,-12.07328,33.20689,-43.00352,161.6548,161.3118,11,0.0.0.0,10.139.104.221,1,0
2013-11-11 16:51:50.654,494,49.4,52.17025,4.457556,0,3.388034,81.80036,9.214627,10,1384185110,-0.1838074,0.9279327,-0.9528656,-8.329136,32.00048,-43.2332,167.3993,167.0563,10,0.0.0.0,10.139.104.221,1,0
2013-11-11 16:51:50.752,495,49.5,52.17025,4.457556,0,3.388034,81.80036,9.214627,10,1384185110,-0.2355042,0.6520844,-0.5512238,-5.245724,31.23277,-41.85516,175.1074,174.7644,10,0.0.0.0,10.139.104.221,1,0
2013-11-11 16:51:50.850,496,49.6,52.17025,4.457556,0,3.388034,81.80036,9.214627,10,1384185110,-0.1089172,0.6083527,-0.5700989,-5.576088,30.02637,-42.19968,181.5525,181.2095,10,0.0.0.0,10.139.104.221,1,0
2013-11-11 16:51:50.954,497,49.7,52.17025,4.457556,0,3.388034,81.80036,9.214627,10,1384185110,-0.2203827,0.8267212,-0.7677612,-4.199566,30.0812,-44.20931,186.0396,185.6965,10,0.0.0.0,10.139.104.221,1,0
2013-11-11 16:51:51.108,498,49.8,52.17025,4.457556,0,3.388034,81.80036,9.214627,10,1384185110,-0.1738586,0.8137665,-0.6925812,-3.263531,27.72324,-45.52993,197.7064,197.3633,10,0.0.0.0,10.139.104.221,1,0
2013-11-11 16:51:51.155,499,49.9,52.17025,4.457627,0,3.68936,87.34274,9.290763,10,1384185111,-0.1069489,0.6306458,-0.6938019,-3.593899,27.0652,-45.64477,197.3786,197.0356,10,0.0.0.0,10.139.104.221,1,0
2013-11-11 16:51:51.256,500,50,52.17025,4.457627,0,3.68936,87.34274,9.290763,10,1384185111,-0.09101868,0.7681732,-0.9082794,-5.741272,27.12003,-46.27636,194.7751,194.4321,10,0.0.0.0,10.139.104.221,1,0
2013-11-11 16:51:51.350,501,50.1,52.17025,4.457627,0,3.68936,87.34274,9.290763,10,1384185111,-0.1659393,0.7139587,-0.6874084,-7.007671,25.4201,-45.64477,194.8767,194.5336,10,0.0.0.0,10.139.104.221,1,0
2013-11-11 16:51:51.450,502,50.2,52.17025,4.457627,0,3.68936,87.34274,9.290763,10,1384185111,-0.1365662,0.6239929,-0.6315613,-7.888645,23.88469,-45.18542,193.2323,192.8893,10,0.0.0.0,10.139.104.221,1,0
2013-11-11 16:51:51.552,503,50.3,52.17025,4.457627,0,3.68936,87.34274,9.290763,10,1384185111,-0.1304321,0.6435547,-0.6140747,-9.320232,23.11697,-46.67829,189.3273,188.9843,10,0.0.0.0,10.139.104.221,1,0
2013-11-11 16:51:51.653,504,50.4,52.17025,4.457627,0,3.68936,87.34274,9.290763,10,1384185111,-0.2901306,0.7455139,-0.7142792,-10.86193,22.78796,-47.36731,188.7466,188.4035,10,0.0.0.0,10.139.104.221,1,0
2013-11-11 16:51:51.751,505,50.5,52.17025,4.457627,0,3.68936,87.34274,9.290763,10,1384185111,-0.1816406,0.5246429,-0.4747314,-12.07328,20.70417,-46.21895,186.6148,186.2718,10,0.0.0.0,10.139.104.221,1,0
2013-11-11 16:51:51.852,506,50.6,52.17025,4.457627,0,3.68936,87.34274,9.290763,10,1384185111,-0.1891022,0.6833649,-0.6640625,-14.49594,20.26548,-44.72607,180.0075,179.6644,10,0.0.0.0,10.139.104.221,1,0
2013-11-11 16:51:51.958,507,50.7,52.17025,4.457627,0,3.68936,87.34274,9.290763,10,1384185111,-0.2206268,0.7710876,-0.6527252,-16.53321,22.07508,-44.66866,174.9721,174.6291,10,0.0.0.0,10.139.104.221,1,0
2013-11-11 16:51:52.110,508,50.8,52.17025,4.457627,0,3.68936,87.34274,9.290763,10,1384185111,-0.3137207,0.7278595,-0.6646576,-17.13887,23.33632,-43.00352,172.4895,172.1464,10,0.0.0.0,10.139.104.221,1,0
2013-11-11 16:51:52.150,509,50.9,52.17023,4.457685,0,3.215176,100.8968,9.315064,10,1384185112,-0.256012,0.7842407,-0.4630432,-17.74454,23.72018,-40.64938,167.7464,167.4034,10,0.0.0.0,10.139.104.221,1,0
2013-11-11 16:51:52.255,510,51,52.17023,4.457685,0,3.215176,100.8968,9.315064,10,1384185112,-0.2967834,0.8203125,-0.4535828,-18.29515,24.92658,-40.19004,167.5907,167.2477,10,0.0.0.0,10.139.104.221,1,0
2013-11-11 16:51:52.350,511,51.1,52.17023,4.457685,0,3.215176,100.8968,9.315064,10,1384185112,-0.3365479,0.8533936,-0.4499359,-17.63442,26.57167,-40.53455,170.1062,169.7631,10,0.0.0.0,10.139.104.221,1,0
2013-11-11 16:51:52.450,512,51.2,52.17023,4.457685,0,3.215176,100.8968,9.315064,10,1384185112,-0.3889618,0.9078979,-0.4814301,-16.86357,28.10709,-41.33841,172.6596,172.3166,10,0.0.0.0,10.139.104.221,1,0
2013-11-11 16:51:52.557,513,51.3,52.17023,4.457685,0,3.215176,100.8968,9.315064,10,1384185112,-0.3394775,0.8312073,-0.5326233,-16.47815,27.17487,-41.51066,178.309,177.9659,10,0.0.0.0,10.139.104.221,1,0
2013-11-11 16:51:52.651,514,51.4,52.17023,4.457685,0,3.215176,100.8968,9.315064,10,1384185112,-0.4006958,0.9002686,-0.3772736,-17.57936,27.39422,-40.93648,179.36,179.017,10,0.0.0.0,10.139.104.221,1,0
2013-11-11 16:51:52.750,515,51.5,52.17023,4.457685,0,3.215176,100.8968,9.315064,10,1384185112,-0.4366608,0.7941589,-0.517334,-18.46033,27.61356,-40.82164,179.3531,179.0101,10,0.0.0.0,10.139.104.221,1,0
2013-11-11 16:51:52.850,516,51.6,52.17023,4.457685,0,3.215176,100.8968,9.315064,10,1384185112,-0.3448029,0.7996826,-0.4624634,-20.11216,27.50389,-41.28098,179.7317,179.3887,10,0.0.0.0,10.139.104.221,1,0
2013-11-11 16:51:52.960,517,51.7,52.17023,4.457685,0,3.215176,100.8968,9.315064,10,1384185112,-0.2901764,0.857605,-0.4195709,-19.28624,26.462,-40.76422,183.0468,182.7037,10,0.0.0.0,10.139.104.221,1,0
2013-11-11 16:51:53.100,518,51.8,52.17023,4.457685,0,3.215176,100.8968,9.315064,10,1384185112,-0.3514557,0.826889,-0.3866272,-20.93808,26.24265,-41.22356,178.1772,177.8342,10,0.0.0.0,10.139.104.221,1,0
2013-11-11 16:51:53.153,519,51.9,52.17023,4.457736,0,2.40217,98.60672,9.350266,10,1384185113,-0.5661469,0.9501495,-0.4121246,-21.04819,27.01036,-40.30488,180.3786,180.0356,10,0.0.0.0,10.139.104.221,1,0
2013-11-11 16:51:53.258,520,52,52.17023,4.457736,0,2.40217,98.60672,9.350266,10,1384185113,-0.3323822,0.6825409,-0.3121948,-21.92916,26.68134,-41.56808,182.9899,182.6468,10,0.0.0.0,10.139.104.221,1,0
2013-11-11 16:51:53.353,521,52.1,52.17023,4.457736,0,2.40217,98.60672,9.350266,10,1384185113,-0.3994293,0.8230743,-0.4822083,-20.88301,26.73618,-40.93648,183.0319,182.6888,10,0.0.0.0,10.139.104.221,1,0
2013-11-11 16:51:53.450,522,52.2,52.17023,4.457736,0,2.40217,98.60672,9.350266,10,1384185113,-0.491394,0.8793488,-0.4028931,-22.97532,27.39422,-40.24746,174.8836,174.5406,10,0.0.0.0,10.139.104.221,1,0
2013-11-11 16:51:53.550,523,52.3,52.17023,4.457736,0,2.40217,98.60672,9.350266,10,1384185113,-0.2972107,0.8239136,-0.3786163,-23.36075,27.44905,-40.64938,174.9879,174.6449,10,0.0.0.0,10.139.104.221,1,0
2013-11-11 16:51:53.650,524,52.4,52.17023,4.457736,0,2.40217,98.60672,9.350266,10,1384185113,-0.3507843,0.7937775,-0.3709564,-18.73564,26.68134,-40.53455,180.6953,180.3523,10,0.0.0.0,10.139.104.221,1,0
2013-11-11 16:51:53.751,525,52.5,52.17023,4.457736,0,2.40217,98.60672,9.350266,10,1384185113,-0.4560852,0.8924866,-0.4962616,-17.7996,26.95552,-39.67328,182.3429,181.9999,10,0.0.0.0,10.139.104.221,1,0
2013-11-11 16:51:53.853,526,52.6,52.17023,4.457736,0,2.40217,98.60672,9.350266,10,1384185113,-0.3018341,0.8676453,-0.4186707,-18.18503,28.43611,-40.99389,183.3457,183.0027,10,0.0.0.0,10.139.104.221,1,0
2013-11-11 16:51:53.958,527,52.7,52.17023,4.457736,0,2.40217,98.60672,9.350266,10,1384185113,-0.3785858,0.920929,-0.5291138,-17.46923,28.38128,-42.42934,185.4319,185.0889,10,0.0.0.0,10.139.104.221,1,0
2013-11-11 16:51:54.100,528,52.8,52.17023,4.457736,0,2.40217,98.60672,9.350266,10,1384185113,-0.5960236,0.9365845,-0.6809082,-15.65223,26.35232,-43.06095,190.6018,190.2587,10,0.0.0.0,10.139.104.221,1,0
2013-11-11 16:51:54.151,529,52.9,52.17023,4.457736,0,0,98.60672,9.394325,10,1384185114,-0.1418152,0.5942535,-0.7960358,-12.01821,25.25559,-45.47251,200.4286,200.0856,10,0.0.0.0,10.139.104.221,1,0
2013-11-11 16:51:54.249,530,53,52.17023,4.457736,0,0,98.60672,9.394325,10,1384185114,-0.1541901,0.3647461,-0.6981354,-9.320232,22.89762,-46.79313,213.6471,213.3041,10,0.0.0.0,10.139.104.221,1,0
2013-11-11 16:51:54.384,531,53.1,52.17023,4.457736,0,0,98.60672,9.394325,10,1384185114,-0.2835236,0.5259857,-0.6611023,-8.714558,24.48788,-46.16152,217.9402,217.5972,10,0.0.0.0,10.139.104.221,1,0
2013-11-11 16:51:54.450,532,53.2,52.17023,4.457736,0,0,98.60672,9.394325,10,1384185114,-0.2272491,0.4730377,-0.2274933,-11.90809,26.90069,-43.97964,212.7719,212.4289,10,0.0.0.0,10.139.104.221,1,0
2013-11-11 16:51:54.555,533,53.3,52.17023,4.457736,0,0,98.60672,9.394325,10,1384185114,-0.42659,1.488068,-1.147049,-14.71619,28.81997,-40.59197,203.9573,203.6143,10,0.0.0.0,10.139.104.221,1,0
2013-11-11 16:51:54.666,534,53.4,52.17023,4.457736,0,0,98.60672,9.394325,10,1384185114,-0.4951019,1.150085,-0.3013916,-15.76235,29.97153,-40.0752,197.5759,197.2329,10,0.0.0.0,10.139.104.221,1,0
2013-11-11 16:51:54.751,535,53.5,52.17023,4.457736,0,0,98.60672,9.394325,10,1384185114,-0.1440735,0.842453,-0.4803009,-15.48705,34.63264,-40.82164,196.4715,196.1284,10,0.0.0.0,10.139.104.221,1,0
2013-11-11 16:51:54.850,536,53.6,52.17023,4.457736,0,0,98.60672,9.394325,10,1384185114,-0.1927338,0.9025116,-0.3199921,-15.59716,38.47119,-38.29524,195.1158,194.7727,10,0.0.0.0,10.139.104.221,1,0
2013-11-11 16:51:54.951,537,53.7,52.17023,4.457736,0,0,98.60672,9.394325,10,1384185114,-0.08161926,0.9015808,-0.2864532,-14.33077,40.17112,-35.94109,191.8946,191.5515,10,0.0.0.0,10.139.104.221,1,0
2013-11-11 16:51:55.062,538,53.8,52.17023,4.457736,0,0,98.60672,9.394325,10,1384185114,-0.1267548,0.9742737,-0.1291046,-14.16558,41.98072,-32.32375,189.2384,188.8954,10,0.0.0.0,10.139.104.221,1,0
2013-11-11 16:51:55.151,539,53.9,52.17023,4.457736,0,0,98.60672,9.63813,10,1384185115,-0.3058472,0.9110107,-0.1676025,-16.47815,43.2968,-31.86441,187.4122,187.0692,10,0.0.0.0,10.139.104.221,1,0
2013-11-11 16:51:55.252,540,54,52.17023,4.457736,0,0,98.60672,9.63813,10,1384185115,-0.2972717,0.9678497,-0.2407379,-16.80851,44.61288,-31.29023,190.4632,190.1201,10,0.0.0.0,10.139.104.221,1,0
2013-11-11 16:51:55.351,541,54.1,52.17023,4.457736,0,0,98.60672,9.63813,10,1384185115,-0.2341614,0.9538422,-0.2462921,-17.57936,44.39354,-29.91219,193.453,193.11,10,0.0.0.0,10.139.104.221,1,0
2013-11-11 16:51:55.451,542,54.2,52.17023,4.457736,0,0,98.60672,9.63813,10,1384185115,-0.2922974,0.7926178,-0.04554749,-20.38746,41.4872,-27.09871,196.9121,196.569,10,0.0.0.0,10.139.104.221,1,0
2013-11-11 16:51:55.551,543,54.3,52.17023,4.457736,0,0,98.60672,9.63813,10,1384185115,-0.4654694,1.12764,-0.01304626,-22.31459,41.10334,-24.40005,200.9583,200.6152,10,0.0.0.0,10.139.104.221,1,0
2013-11-11 16:51:55.650,544,54.4,52.17023,4.457736,0,0,98.60672,9.63813,10,1384185115,-0.3758545,0.9703979,0.08699036,-21.37855,40.93883,-21.58656,202.8068,202.4638,10,0.0.0.0,10.139.104.221,1,0
2013-11-11 16:51:55.751,545,54.5,52.17023,4.457736,0,0,98.60672,9.63813,10,1384185115,-0.3811798,0.8800507,0.2449341,-19.23119,40.00661,-20.84013,209.0538,208.7108,10,0.0.0.0,10.139.104.221,1,0
2013-11-11 16:51:55.855,546,54.6,52.17023,4.457736,0,0,98.60672,9.63813,10,1384185115,-0.393158,1.013153,0.1306305,-16.64332,40.82916,-20.4382,214.9884,214.6454,10,0.0.0.0,10.139.104.221,1,0
2013-11-11 16:51:55.964,547,54.7,52.17023,4.457736,0,0,98.60672,9.63813,10,1384185115,-0.3006287,0.948288,-0.03137207,-16.2579,42.0904,-21.18463,220.2524,219.9093,10,0.0.0.0,10.139.104.221,1,0
2013-11-11 16:51:56.101,548,54.8,52.17023,4.457736,0,0,98.60672,9.63813,10,1384185115,-0.3984833,1.17511,-0.1297302,-16.14777,41.21301,-21.52914,224.928,224.585,10,0.0.0.0,10.139.104.221,1,0
2013-11-11 16:51:56.150,549,54.9,52.17023,4.457736,0,0,98.60672,10.0745,10,1384185116,-0.4479218,0.9387054,-0.009567261,-14.77125,41.0485,-22.04591,228.1295,227.7865,10,0.0.0.0,10.139.104.221,1,0
2013-11-11 16:51:56.249,550,55,52.17023,4.457736,0,0,98.60672,10.0745,10,1384185116,-0.4169922,0.8287964,0.007385254,-15.37693,41.76138,-22.10332,228.7827,228.4397,10,0.0.0.0,10.139.104.221,1,0
2013-11-11 16:51:56.350,551,55.1,52.17023,4.457736,0,0,98.60672,10.0745,10,1384185116,-0.4744415,0.8782806,0.05863953,-17.7996,41.65171,-22.21816,226.0304,225.6874,10,0.0.0.0,10.139.104.221,1,0
2013-11-11 16:51:56.452,552,55.2,52.17023,4.457736,0,0,98.60672,10.0745,10,1384185116,-0.4101715,0.9105225,-0.0161438,-16.64332,40.39046,-21.93108,224.4475,224.1045,10,0.0.0.0,10.139.104.221,1,0
2013-11-11 16:51:56.556,553,55.3,52.17023,4.457736,0,0,98.60672,10.0745,10,1384185116,-0.7679291,0.8841705,-0.04472351,-17.02875,39.45824,-22.21816,222.1241,221.781,10,0.0.0.0,10.139.104.221,1,0
2013-11-11 16:51:56.651,554,55.4,52.17023,4.457736,0,0,98.60672,10.0745,10,1384185116,-0.852829,0.5191345,0.1457062,-20.88301,35.181,-23.5962,223.13,222.7869,10,0.0.0.0,10.139.104.221,1,0
2013-11-11 16:51:56.751,555,55.5,52.17023,4.457736,0,0,98.60672,10.0745,10,1384185116,-0.5562439,0.7183075,0.01782227,-28.42635,24.48788,-27.44321,243.4109,243.0679,10,0.0.0.0,10.139.104.221,1,0
2013-11-11 16:51:56.851,556,55.6,52.17023,4.457736,0,0,98.60672,10.0745,10,1384185116,-1.017929,0.07139587,-0.01831055,-32.77616,19.60743,-26.69678,240.7773,240.4343,10,0.0.0.0,10.139.104.221,1,0
2013-11-11 16:51:56.951,557,55.7,52.17023,4.457736,0,0,98.60672,10.0745,10,1384185116,-1.607346,1.144531,-0.7682037,-31.23446,20.70417,-27.95998,245.6817,245.3387,10,0.0.0.0,10.139.104.221,1,0
2013-11-11 16:51:57.067,558,55.8,52.17023,4.457736,0,0,98.60672,10.0745,10,1384185116,-0.1474457,0.9339752,0.01887512,-31.06927,21.52671,-31.34765,249.8775,249.5344,10,0.0.0.0,10.139.104.221,1,0
2013-11-11 16:51:57.150,559,55.9,52.17023,4.457736,0,0,98.60672,10.33203,10,1384185117,-0.7354126,0.5329285,-0.2345123,-30.7389,24.04919,-30.19928,244.4795,244.1365,10,0.0.0.0,10.139.104.221,1,0
2013-11-11 16:51:57.250,560,56,52.17023,4.457736,0,0,98.60672,10.33203,10,1384185117,-0.5056458,0.8430634,-0.01438904,-30.24336,25.20076,-29.22318,239.5896,239.2466,10,0.0.0.0,10.139.104.221,1,0
2013-11-11 16:51:57.351,561,56.1,52.17023,4.457736,0,0,98.60672,10.33203,10,1384185117,-0.7956696,0.6533508,-0.1250458,-27.98586,29.75219,-28.13223,241.1838,240.8407,10,0.0.0.0,10.139.104.221,1,0
2013-11-11 16:51:57.449,562,56.2,52.17023,4.457736,0,0,98.60672,10.33203,10,1384185117,-0.4386597,0.8278961,-0.03161621,-27.27007,32.3295,-25.77808,241.1778,240.8348,10,0.0.0.0,10.139.104.221,1,0
2013-11-11 16:51:57.549,563,56.3,52.17023,4.457736,0,0,98.60672,10.33203,10,1384185117,-0.7253876,0.5568237,0.1636353,-27.49031,35.07133,-21.64398,246.0592,245.7162,10,0.0.0.0,10.139.104.221,1,0
2013-11-11 16:51:57.651,564,56.4,52.17023,4.457736,0,0,98.60672,10.33203,10,1384185117,-0.502121,0.9266663,0.05351257,-29.25226,33.86493,-18.31373,250.9256,250.5825,10,0.0.0.0,10.139.104.221,1,0
2013-11-11 16:51:57.754,565,56.5,52.17023,4.457736,0,0,98.60672,10.33203,10,1384185117,-0.6286316,0.7852325,0.1312866,-30.07817,34.13911,-16.07442,251.3271,250.9841,10,0.0.0.0,10.139.104.221,1,0
2013-11-11 16:51:57.855,566,56.6,52.17023,4.457736,0,0,98.60672,10.33203,10,1384185117,-0.8538818,0.6949615,0.1355133,-30.95915,34.02943,-13.66286,247.8968,247.5537,10,0.0.0.0,10.139.104.221,1,0
2013-11-11 16:51:57.951,567,56.7,52.17023,4.457736,0,0,98.60672,10.33203,10,1384185117,-1.155182,0.5200958,0.1289215,-27.6555,35.7842,-13.20351,251.6187,251.2757,10,0.0.0.0,10.139.104.221,1,0
2013-11-11 16:51:58.053,568,56.8,52.17023,4.457736,0,0,98.60672,10.33203,10,1384185117,-1.021698,0.7075348,-0.2497253,-24.57209,36.22289,-14.00736,255.6397,255.2967,10,0.0.0.0,10.139.104.221,1,0
2013-11-11 16:51:58.151,569,56.9,52.17023,4.457736,0,0,98.60672,10.51631,10,1384185118,-0.7094116,0.9480896,0.7828369,-25.61824,28.2716,-28.18964,260.3928,260.0498,10,0.0.0.0,10.139.104.221,1,0
2013-11-11 16:51:58.259,570,57,52.17023,4.457736,0,0,98.60672,10.51631,10,1384185118,-0.4474945,0.1578979,-0.004592896,-25.61824,22.89762,-38.52491,260.5572,260.2142,10,0.0.0.0,10.139.104.221,1,0
2013-11-11 16:51:58.351,571,57.1,52.17023,4.457736,0,0,98.60672,10.51631,10,1384185118,-0.4620056,0.296051,-0.214325,-25.28788,17.41398,-40.47713,260.2133,259.8703,10,0.0.0.0,10.139.104.221,1,0
2013-11-11 16:51:58.452,572,57.2,52.17023,4.457736,0,0,98.60672,10.51631,10,1384185118,-0.9583588,0.5914459,-0.8498688,-27.49031,20.37514,-36.91721,262.0514,261.7084,10,0.0.0.0,10.139.104.221,1,0
2013-11-11 16:51:58.550,573,57.3,52.17023,4.457736,0,0,98.60672,10.51631,10,1384185118,-1.185226,0.6469879,0.04573059,-28.04093,25.31043,-33.47212,262.2394,261.8964,10,0.0.0.0,10.139.104.221,1,0
2013-11-11 16:51:58.650,574,57.4,52.17023,4.457736,0,0,98.60672,10.51631,10,1384185118,-0.01803589,0.3690186,0.07731628,-28.31623,25.14592,-33.18503,259.3205,258.9774,10,0.0.0.0,10.139.104.221,1,0
2013-11-11 16:51:58.751,575,57.5,52.17023,4.457736,0,0,98.60672,10.51631,10,1384185118,-1.013916,0.9807281,-0.1754456,-25.398,30.02637,-33.35728,263.4148,263.0718,10,0.0.0.0,10.139.104.221,1,0
2013-11-11 16:51:58.851,576,57.6,52.17023,4.457736,0,0,98.60672,10.51631,10,1384185118,-0.7384949,0.7435303,0.02970886,-20.77288,38.25184,-25.43358,271.0808,270.7378,10,0.0.0.0,10.139.104.221,1,0
2013-11-11 16:51:58.950,577,57.7,52.17023,4.457736,0,0,98.60672,10.51631,10,1384185118,-0.5949097,0.7324066,0.0887146,-16.75344,42.91294,-14.1222,279.2263,278.8832,10,0.0.0.0,10.139.104.221,1,0
2013-11-11 16:51:59.087,578,57.8,52.17023,4.457736,0,0,98.60672,10.51631,10,1384185118,-0.7011566,0.7414093,-0.01393127,-15.76235,43.57098,-7.691368,286.6707,286.3277,10,0.0.0.0,10.139.104.221,1,0
2013-11-11 16:51:59.151,579,57.9,52.17023,4.457736,0,0,98.60672,10.46238,10,1384185119,-0.8817444,0.8689117,-0.03540039,-15.81741,43.95483,-5.107552,292.4036,292.0606,10,0.0.0.0,10.139.104.221,1,0
2013-11-11 16:51:59.250,580,58,52.17023,4.457736,0,0,98.60672,10.46238,10,1384185119,-1.348602,1.316711,-0.1737518,-15.32186,45.32575,-2.75341,301.2032,300.8602,10,0.0.0.0,10.139.104.221,1,0
2013-11-11 16:51:59.371,581,58.1,52.17023,4.457736,0,0,98.60672,10.46238,10,1384185119,-0.7644958,0.5539093,0.6230164,-15.70729,45.49026,-5.681732,311.9558,311.6128,10,0.0.0.0,10.139.104.221,1,0
2013-11-11 16:51:59.450,582,58.2,52.17023,4.457736,0,0,98.60672,10.46238,10,1384185119,-1.259354,0.2017365,0.3581543,-15.5421,43.02261,-15.15573,317.8866,317.5436,10,0.0.0.0,10.139.104.221,1,0
2013-11-11 16:51:59.553,583,58.3,52.17023,4.457736,0,0,98.60672,10.46238,10,1384185119,-0.1240234,-0.01751709,-0.2160645,-11.90809,45.21607,-20.89754,315.0495,314.7065,10,0.0.0.0,10.139.104.221,1,0
2013-11-11 16:51:59.653,584,58.4,52.17023,4.457736,0,0,98.60672,10.46238,10,1384185119,-0.9334717,1.281769,-0.5361328,-11.52266,45.38059,-15.55766,313.9395,313.5965,10,0.0.0.0,10.139.104.221,1,0
2013-11-11 16:51:59.752,585,58.5,52.17023,4.457736,0,0,98.60672,10.46238,10,1384185119,-0.6171722,0.1319885,0.2167664,-9.044926,45.87411,-12.39966,319.3564,319.0134,10,0.0.0.0,10.139.104.221,1,0
2013-11-11 16:51:59.852,586,58.6,52.17023,4.457736,0,0,98.60672,10.46238,10,1384185119,-0.5705109,0.7933655,-0.1430206,-11.85303,47.90306,-10.6197,325.8068,325.4638,10,0.0.0.0,10.139.104.221,1,0
2013-11-11 16:51:59.951,587,58.7,52.17023,4.457736,0,0,98.60672,10.46238,10,1384185119,-0.775238,0.650177,0.001571655,-15.92753,45.59993,-8.437813,323.4439,323.1009,10,0.0.0.0,10.139.104.221,1,0
2013-11-11 16:52:00.092,588,58.8,52.17023,4.457736,0,0,98.60672,10.46238,10,1384185119,-1.121277,0.57724,-0.2896881,-14.88137,45.76444,-7.346863,320.6029,320.2599,10,0.0.0.0,10.139.104.221,1,0
2013-11-11 16:52:00.154,589,58.9,52.17023,4.457736,0,0,98.60672,10.42427,10,1384185120,-0.5687408,0.9011993,-0.646637,-7.998768,46.69666,-10.27518,330.2326,329.8896,10,0.0.0.0,10.139.104.221,1,0
2013-11-11 16:52:00.272,590,59,52.17023,4.457736,0,0,98.60672,10.42427,10,1384185120,-0.7108917,1.019424,0.125473,-8.604435,47.29986,-8.150719,327.4263,327.0833,10,0.0.0.0,10.139.104.221,1,0
2013-11-11 16:52:00.350,591,59.1,52.17023,4.457736,0,0,98.60672,10.42427,10,1384185120,-0.8184052,0.7067566,0.2203064,-9.595539,47.9579,-3.557266,325.8799,325.5368,10,0.0.0.0,10.139.104.221,1,0
2013-11-11 16:52:00.451,592,59.2,52.17023,4.457736,0,0,98.60672,10.42427,10,1384185120,-0.8049927,0.7296753,0.08204651,-8.82468,49.05463,5.859314,334.1614,333.8184,10,0.0.0.0,10.139.104.221,1,0
2013-11-11 16:52:00.551,593,59.3,52.17023,4.457736,0,0,98.60672,10.42427,10,1384185120,-0.48909,0.4487457,-0.0308075,-14.33077,46.64182,4.94062,343.2578,342.9147,10,0.0.0.0,10.139.104.221,1,0
2013-11-11 16:52:00.652,594,59.4,52.17023,4.457736,0,0,98.60672,10.42427,10,1384185120,-0.3686829,0.1932831,-0.5719604,-16.97368,44.88706,3.447746,338.0349,337.6919,10,0.0.0.0,10.139.104.221,1,0
2013-11-11 16:52:00.751,595,59.5,52.17023,4.457736,0,0,98.60672,10.42427,10,1384185120,-0.3641663,0.5194855,-0.03927612,-19.50649,44.55804,0.002655029,338.2415,337.8985,10,0.0.0.0,10.139.104.221,1,0
2013-11-11 16:52:00.854,596,59.6,52.17023,4.457736,0,0,98.60672,10.42427,10,1384185120,-0.6147766,0.5812683,-0.02484131,-21.10325,44.5032,0.06008148,338.963,338.62,10,0.0.0.0,10.139.104.221,1,0
2013-11-11 16:52:00.950,597,59.7,52.17023,4.457736,0,0,98.60672,10.42427,10,1384185120,-0.5220032,0.5812836,-0.1432648,-19.72673,44.88706,-0.5715256,337.1887,336.8457,10,0.0.0.0,10.139.104.221,1,0
2013-11-11 16:52:01.090,598,59.8,52.17023,4.457736,0,0,98.60672,10.42427,10,1384185120,-0.6520996,0.6842804,-0.06225586,-19.12106,43.95484,0.5194244,337.7237,337.3807,10,0.0.0.0,10.139.104.221,1,0
2013-11-11 16:52:01.150,599,59.9,52.17023,4.457736,0,0,98.60672,10.49765,10,1384185121,-0.8024139,0.6049957,0.1339874,-17.57936,45.05156,1.208443,329.319,328.976,10,0.0.0.0,10.139.104.221,1,0
2013-11-11 16:52:01.251,600,60,52.17023,4.457736,0,0,98.60672,10.49765,10,1384185121,-0.6377258,0.5081482,-0.05493164,-15.70729,46.25797,0.8639297,325.7924,325.4493,10,0.0.0.0,10.139.104.221,1,0
2013-11-11 16:52:01.353,601,60.1,52.17023,4.457736,0,0,98.60672,10.49765,10,1384185121,-1.264847,1.216919,-0.1118164,-14.33077,45.87411,6.892838,320.1624,319.8194,10,0.0.0.0,10.139.104.221,1,0
2013-11-11 16:52:01.455,602,60.2,52.17023,4.457736,0,0,98.60672,10.49765,10,1384185121,-0.7303162,1.084961,0.3082581,-14.77125,46.20313,-2.75341,328.8082,328.4652,10,0.0.0.0,10.139.104.221,1,0
2013-11-11 16:52:01.550,603,60.3,52.17023,4.457736,0,0,98.60672,10.49765,10,1384185121,-1.293442,0.9374237,-0.3925781,-13.28461,47.13535,-4.074028,322.0291,321.686,10,0.0.0.0,10.139.104.221,1,0
2013-11-11 16:52:01.764,604,60.4,52.17023,4.457736,0,0,98.60672,10.49765,10,1384185121,-0.1113739,0.449585,-0.08093262,-11.24736,47.29986,-4.131447,330.555,330.2119,10,0.0.0.0,10.139.104.221,1,0
