time,timestamp,recordtime,lat,long,alt,speed,course,verticalAccuracy,horizontalAccuracy,locTimeStamp,accelerationX,accelerationY,accelerationZ,HeadingX,HeadingY,HeadingZ,TrueHeading,MagneticHeading,HeadingAccuracy,en0,pdp_ip0,DeviceOrientation,Event
2013-11-11 16:56:54.912,1,0.1,52.17019,4.457948,0,0.678007,89.27277,9.285666,5,1384185383,0.378891,0.7322845,0.4916992,10.68683,5.107196,-45.3459,307.7713,307.4283,10,0.0.0.0,10.139.104.221,5,0
2013-11-11 16:56:55.149,2,0.2,52.17019,4.457948,0,0.678007,89.27277,9.285666,5,1384185383,0.3696594,0.7534027,0.5354309,12.39232,6.697032,-44.2556,293.5378,293.1948,10,0.0.0.0,10.139.104.221,5,0
2013-11-11 16:56:55.315,3,0.3,52.17019,4.457948,0,0.678007,89.27277,9.285666,5,1384185383,0.3756561,0.6994781,0.5297394,12.72241,5.710237,-44.48514,290.8871,290.544,10,0.0.0.0,10.139.104.221,5,0
2013-11-11 16:56:55.551,4,0.4,52.17019,4.457948,0,0.678007,89.27277,9.285666,5,1384185383,0.3821869,0.7817535,0.5646057,11.23699,7.080781,-45.23113,291.6495,291.3065,10,0.0.0.0,10.139.104.221,5,0
2013-11-11 16:56:55.687,5,0.5,52.17019,4.457948,0,0.678007,89.27277,9.285666,5,1384185383,0.3861389,0.7814026,0.5354156,12.11724,6.203631,-44.88683,293.0571,292.7141,10,0.0.0.0,10.139.104.221,1,0
2013-11-11 16:56:55.796,6,0.6,52.17019,4.457948,0,0.678007,89.27277,9.285666,5,1384185383,0.3968811,0.7703552,0.5257568,11.67711,5.874697,-44.19821,292.4349,292.0919,10,0.0.0.0,10.139.104.221,1,0
2013-11-11 16:56:55.914,7,0.7,52.17019,4.457948,0,0.678007,89.27277,9.285666,5,1384185383,0.4048462,0.7919312,0.552002,9.421471,3.51736,-46.43621,296.4315,296.0884,10,0.0.0.0,10.139.104.221,1,0
2013-11-11 16:56:56.294,8,0.8,52.17019,4.457958,0,0.7257561,73.4369,9.175321,5,1384185384,0.364624,0.8054047,0.5479279,12.3373,1.488945,-44.31299,305.5394,305.1964,10,0.0.0.0,10.139.104.221,1,0
2013-11-11 16:56:56.466,9,0.9,52.17019,4.457958,0,0.7257561,73.4369,9.175321,5,1384185384,0.3432159,0.7535553,0.493454,13.27257,-0.3201707,-44.02606,313.5111,313.1681,10,0.0.0.0,10.139.104.221,1,0
2013-11-11 16:56:56.595,10,1,52.17019,4.457958,0,0.7257561,73.4369,9.175321,5,1384185384,0.3426971,0.7302551,0.5091095,9.421471,-3.938407,-45.51806,319.5175,319.1745,10,0.0.0.0,10.139.104.221,1,0
2013-11-11 16:56:56.717,11,1.1,52.17019,4.457958,0,0.7257561,73.4369,9.175321,5,1384185384,0.3527985,0.7055664,0.5053101,7.936047,-5.528246,-44.08344,325.4893,325.1463,10,0.0.0.0,10.139.104.221,1,0
2013-11-11 16:56:56.875,12,1.2,52.17019,4.457958,0,0.7257561,73.4369,9.175321,5,1384185384,0.367218,0.7022552,0.4927216,8.706268,-7.282544,-42.59145,330.9221,330.5791,10,0.0.0.0,10.139.104.221,1,0
2013-11-11 16:56:56.975,13,1.3,52.17019,4.457958,0,0.7257561,73.4369,9.175321,5,1384185384,0.3251343,0.7090759,0.5061646,12.61238,-11.94241,-42.53407,338.6672,338.3242,10,0.0.0.0,10.139.104.221,1,0
2013-11-11 16:56:57.193,14,1.4,52.17019,4.457958,0,0.7257561,73.4369,9.175321,5,1384185384,0.3833771,0.7392578,0.5150604,13.27257,-17.31495,-37.13992,354.3373,353.9943,10,0.0.0.0,10.139.104.221,1,0
2013-11-11 16:56:57.295,15,1.5,52.17019,4.457958,0,0.7257561,73.4369,9.175321,5,1384185384,0.3996582,0.7648773,0.5734863,8.541222,-22.02964,-36.56607,4.251196,3.908167,10,0.0.0.0,10.139.104.221,1,0
2013-11-11 16:56:57.414,16,1.6,52.17019,4.457958,0,0.7257561,73.4369,9.175321,5,1384185384,0.3804016,0.7806549,0.5451508,2.764576,-25.92199,-35.361,7.75606,7.413031,10,0.0.0.0,10.139.104.221,1,0
2013-11-11 16:56:57.545,17,1.7,52.17019,4.457965,0,0.71028,83.40476,9.057756,5,1384185385,0.3361511,0.7666016,0.5167542,-2.847027,-28.55345,-33.06562,17.38405,17.04102,10,0.0.0.0,10.139.104.221,1,0
2013-11-11 16:56:57.660,18,1.8,52.17019,4.457965,0,0.71028,83.40476,9.057756,5,1384185385,0.3577423,0.7779999,0.5275269,-6.588093,-33.59706,-28.24532,37.98561,37.64258,10,0.0.0.0,10.139.104.221,1,0
2013-11-11 16:56:57.772,19,1.9,52.17019,4.457965,0,0.71028,83.40476,9.057756,5,1384185385,0.3531647,0.7646332,0.5528717,-10.87932,-35.35137,-25.03178,43.22443,42.8814,10,0.0.0.0,10.139.104.221,1,0
2013-11-11 16:56:57.913,20,2,52.17019,4.457965,0,0.71028,83.40476,9.057756,5,1384185385,0.3453522,0.7810669,0.513855,-14.73042,-35.6803,-25.49086,48.12009,47.77706,10,0.0.0.0,10.139.104.221,1,0
2013-11-11 16:56:58.148,21,2.1,52.17019,4.457965,0,0.71028,83.40476,9.057756,5,1384185385,0.3379059,0.7715302,0.5265045,-12.41975,-40.39497,-14.81733,38.19102,37.848,10,0.0.0.0,10.139.104.221,1,0
2013-11-11 16:56:58.307,22,2.2,52.17019,4.457965,0,0.71028,83.40476,9.057756,5,1384185385,0.3478699,0.7891541,0.5498505,-0.5363655,-40.50462,-16.07979,57.13833,56.7953,10,0.0.0.0,10.139.104.221,1,0
2013-11-11 16:56:58.440,23,2.3,52.17019,4.457965,0,0.71028,83.40476,9.057756,5,1384185385,0.3656616,0.7967529,0.5674286,3.589809,-34.09046,-27.15501,52.5991,52.25607,10,0.0.0.0,10.139.104.221,1,0
2013-11-11 16:56:58.649,24,2.4,52.17019,4.457965,0,0.71028,83.40476,9.057756,5,1384185385,0.35112,0.779892,0.506073,-1.306587,-30.74632,-32.49178,53.73435,53.39132,10,0.0.0.0,10.139.104.221,1,0
2013-11-11 16:56:58.777,25,2.5,52.17019,4.457966,0,0.6831259,116.1179,9,5,1384185386,0.35112,0.779892,0.506073,0.4539146,-29.10167,-34.90192,57.12132,56.77829,10,0.0.0.0,10.139.104.221,1,0
2013-11-11 16:56:58.899,26,2.6,52.17019,4.457966,0,0.6831259,116.1179,9,5,1384185386,0.3400421,0.7645111,0.5090027,6.175545,-34.36457,-28.70439,64.69872,64.35569,10,0.0.0.0,10.139.104.221,1,0
2013-11-11 16:56:59.034,27,2.7,52.17019,4.457966,0,0.6831259,116.1179,9,5,1384185386,0.3665009,0.7717743,0.5071259,11.18198,-40.01123,-18.20302,74.38913,74.0461,10,0.0.0.0,10.139.104.221,1,0
2013-11-11 16:56:59.272,28,2.8,52.17019,4.457966,0,0.6831259,116.1179,9,5,1384185386,0.3497314,0.7583923,0.5041809,10.74185,-39.90158,-19.23594,71.68623,71.3432,10,0.0.0.0,10.139.104.221,1,0
2013-11-11 16:56:59.379,29,2.9,52.17019,4.457966,0,0.6831259,116.1179,9,5,1384185386,0.3273163,0.7785187,0.518631,13.54765,-41.38177,-15.16164,66.40988,66.06686,10,0.0.0.0,10.139.104.221,1,0
2013-11-11 16:56:59.500,30,3,52.17019,4.457966,0,0.6831259,116.1179,9,5,1384185386,0.3362427,0.767395,0.4953308,14.97805,-41.05285,-13.55488,70.49557,70.15255,10,0.0.0.0,10.139.104.221,1,0
2013-11-11 16:56:59.614,31,3.1,52.17019,4.457966,0,0.6831259,116.1179,9,5,1384185386,0.3435059,0.7744446,0.5352631,16.29843,-39.51783,-13.66964,69.58665,69.24362,10,0.0.0.0,10.139.104.221,1,0
2013-11-11 16:56:59.808,32,3.2,52.17019,4.457966,0,0.6831259,116.1179,9,5,1384185386,0.358551,0.7838287,0.526535,22.95533,-37.16049,-2.479652,92.98344,92.64041,10,0.0.0.0,10.139.104.221,1,0
2013-11-11 16:56:59.910,33,3.3,52.17019,4.457966,0,0,116.1179,9.112444,10,1384185387,0.3601685,0.7899628,0.5586548,26.20126,-34.58385,2.168495,105.0806,104.7376,10,0.0.0.0,10.139.104.221,1,0
2013-11-11 16:57:00.129,34,3.4,52.17019,4.457966,0,0,116.1179,9.112444,10,1384185387,0.3537445,0.7793274,0.5586548,29.72226,-30.30775,2.857109,111.2659,110.9229,10,0.0.0.0,10.139.104.221,1,0
2013-11-11 16:57:00.251,35,3.5,52.17019,4.457966,0,0,116.1179,9.112444,10,1384185387,0.3600464,0.7575378,0.5382996,31.42775,-30.58186,0.1600342,106.039,105.696,10,0.0.0.0,10.139.104.221,1,0
2013-11-11 16:57:00.338,36,3.6,52.17019,4.457966,0,0,116.1179,9.112444,10,1384185387,0.3654022,0.7796021,0.506134,32.85815,-26.30575,4.86557,120.4976,120.1546,10,0.0.0.0,10.139.104.221,1,0
2013-11-11 16:57:00.439,37,3.7,52.17019,4.457966,0,0,116.1179,9.112444,10,1384185387,0.3452911,0.7923737,0.4700012,21.02978,-36.33816,3.201416,119.5262,119.1832,10,0.0.0.0,10.139.104.221,1,0
2013-11-11 16:57:00.554,38,3.8,52.17019,4.457966,0,0,116.1179,9.112444,10,1384185387,0.3437653,0.7748566,0.4748993,5.130249,-43.73912,-5.463654,109.2666,108.9236,10,0.0.0.0,10.139.104.221,1,0
2013-11-11 16:57:00.671,39,3.9,52.17019,4.457966,0,0,116.1179,9.112444,10,1384185387,0.3505096,0.7736664,0.4642334,3.479778,-42.2041,-14.87472,107.3146,106.9716,10,0.0.0.0,10.139.104.221,1,0
2013-11-11 16:57:00.791,40,4,52.17019,4.457966,0,0,116.1179,9.112444,10,1384185387,0.388504,0.7403259,0.427475,4.249996,-40.4498,-20.4984,103.0363,102.6933,10,0.0.0.0,10.139.104.221,1,0
2013-11-11 16:57:00.891,41,4.1,52.17019,4.457966,0,0,116.1179,9.159779,5,1384185388,0.396637,0.7540894,0.452774,3.314732,-40.83356,-20.67056,100.6349,100.2919,10,0.0.0.0,10.139.104.221,1,0
2013-11-11 16:57:01.128,42,4.2,52.17019,4.457966,0,0,116.1179,9.159779,5,1384185388,0.415863,0.7888031,0.4449615,3.589809,-32.66509,-29.33562,98.34826,98.00523,10,0.0.0.0,10.139.104.221,1,0
2013-11-11 16:57:01.244,43,4.3,52.17019,4.457966,0,0,116.1179,9.159779,5,1384185388,0.4227753,0.8526154,0.4906006,2.159401,-29.26613,-32.09008,99.24655,98.90353,10,0.0.0.0,10.139.104.221,1,0
2013-11-11 16:57:01.345,44,4.4,52.17019,4.457966,0,0,116.1179,9.159779,5,1384185388,0.3949127,0.8350067,0.4282227,2.159401,-26.85397,-34.04115,98.2397,97.89668,10,0.0.0.0,10.139.104.221,1,0
2013-11-11 16:57:01.442,45,4.5,52.17019,4.457966,0,0,116.1179,9.159779,5,1384185388,0.3949127,0.8350067,0.4282227,1.224133,-26.25093,-34.78716,97.35966,97.01663,10,0.0.0.0,10.139.104.221,1,0
2013-11-11 16:57:01.619,46,4.6,52.17019,4.457966,0,0,116.1179,9.159779,5,1384185388,0.4590149,0.8601532,0.4303436,-1.966778,-26.36057,-36.39392,92.3461,92.00307,10,0.0.0.0,10.139.104.221,1,0
2013-11-11 16:57:01.743,47,4.7,52.17019,4.457966,0,0,116.1179,9.159779,5,1384185388,0.4366608,0.8867493,0.4078064,-2.461914,-27.84076,-35.41838,87.51556,87.17254,10,0.0.0.0,10.139.104.221,1,0
2013-11-11 16:57:01.846,48,4.8,52.17019,4.457966,0,0,116.1179,9.159779,5,1384185388,0.399353,0.8963013,0.4085999,-2.736996,-29.97882,-33.98376,90.42338,90.08035,10,0.0.0.0,10.139.104.221,1,0
2013-11-11 16:57:01.943,49,4.9,52.17019,4.457966,0,0,116.1179,9.23582,5,1384185389,0.3894196,0.9000702,0.4796448,-4.277435,-30.30775,-33.63947,89.82742,89.4844,10,0.0.0.0,10.139.104.221,1,0
2013-11-11 16:57:02.191,50,5,52.17019,4.457966,0,0,116.1179,9.23582,5,1384185389,0.4060669,0.9109344,0.5293121,-5.542797,-29.37577,-33.123,86.66547,86.32245,10,0.0.0.0,10.139.104.221,1,0
2013-11-11 16:57:02.290,51,5.1,52.17019,4.457966,0,0,116.1179,9.23582,5,1384185389,0.4375916,0.9082184,0.5129089,-6.257999,-30.41739,-32.60654,85.75319,85.41016,10,0.0.0.0,10.139.104.221,6,0
2013-11-11 16:57:02.399,52,5.2,52.17019,4.457966,0,0,116.1179,9.23582,5,1384185389,0.4378815,0.8282623,0.4254913,-5.597809,-31.07525,-31.68839,88.47369,88.13067,10,0.0.0.0,10.139.104.221,6,0
2013-11-11 16:57:02.484,53,5.3,52.17019,4.457966,0,0,116.1179,9.23582,5,1384185389,0.4378815,0.8282623,0.4254913,-4.882607,-29.81435,-29.67992,89.00961,88.66659,10,0.0.0.0,10.139.104.221,6,0
2013-11-11 16:57:02.581,54,5.4,52.17019,4.457966,0,0,116.1179,9.23582,5,1384185389,0.3662415,0.7518005,0.4594879,-3.947342,-29.64989,-31.80315,83.36234,83.01932,10,0.0.0.0,10.139.104.221,6,0
2013-11-11 16:57:02.683,55,5.5,52.17019,4.457966,0,0,116.1179,9.23582,5,1384185389,0.4268646,0.7893677,0.531662,-4.552513,-30.25293,-31.86053,84.74671,84.40369,10,0.0.0.0,10.139.104.221,6,0
2013-11-11 16:57:02.800,56,5.6,52.17019,4.457966,0,0,116.1179,9.23582,5,1384185389,0.4840393,0.7871704,0.5211792,-4.882607,-31.56866,-28.53223,92.85378,92.51075,10,0.0.0.0,10.139.104.221,6,0
2013-11-11 16:57:02.903,57,5.7,52.17019,4.457966,0,0,116.1179,9.23582,5,1384185389,0.5111694,0.7389679,0.4376984,-6.588093,-30.63668,-30.19639,88.02486,87.68183,10,0.0.0.0,10.139.104.221,6,0
2013-11-11 16:57:02.987,58,5.8,52.17019,4.457971,0,0.3384481,67.78687,9.153897,5,1384185390,0.4568176,0.7216187,0.3450317,-5.487778,-30.63668,-28.47485,92.06981,91.72678,10,0.0.0.0,10.139.104.221,6,0
2013-11-11 16:57:03.211,59,5.9,52.17019,4.457971,0,0.3384481,67.78687,9.153897,5,1384185390,0.4072571,0.8329468,0.444809,-7.90847,-30.74632,-28.93393,91.82145,91.47842,10,0.0.0.0,10.139.104.221,6,0
2013-11-11 16:57:03.395,60,6,52.17019,4.457971,0,0.3384481,67.78687,9.153897,5,1384185390,0.3866577,0.8093567,0.4915466,-9.779007,-28.33416,-28.93393,88.42027,88.07725,10,0.0.0.0,10.139.104.221,6,0
2013-11-11 16:57:03.486,61,6.1,52.17019,4.457971,0,0.3384481,67.78687,9.153897,5,1384185390,0.3957062,0.7858276,0.5023499,-10.05408,-28.16969,-29.10608,89.91264,89.56961,10,0.0.0.0,10.139.104.221,6,0
2013-11-11 16:57:03.600,62,6.2,52.17019,4.457971,0,0.3384481,67.78687,9.153897,5,1384185390,0.4299164,0.7833405,0.5200195,-11.31944,-27.34736,-30.19639,88.27483,87.9318,10,0.0.0.0,10.139.104.221,6,0
2013-11-11 16:57:03.736,63,6.3,52.17019,4.457971,0,0.3384481,67.78687,9.153897,5,1384185390,0.5202026,0.7807617,0.5417786,-12.1997,-26.79915,-30.77023,89.17205,88.82903,10,0.0.0.0,10.139.104.221,6,0
2013-11-11 16:57:03.837,64,6.4,52.17019,4.457971,0,0.3384481,67.78687,9.153897,5,1384185390,0.5167999,0.8034058,0.5543671,-12.47478,-26.30575,-31.51624,88.917,88.57397,10,0.0.0.0,10.139.104.221,6,0
2013-11-11 16:57:03.938,65,6.5,52.17019,4.457977,0,0.347492,112.1642,9.034973,10,1384185391,0.4786072,0.80159,0.5931854,-11.64954,-26.25092,-31.34409,88.53745,88.19442,10,0.0.0.0,10.139.104.221,6,0
2013-11-11 16:57:04.169,66,6.6,52.17019,4.457977,0,0.347492,112.1642,9.034973,10,1384185391,0.4415283,0.7994995,0.6056824,-12.1997,-26.57986,-29.85208,91.42155,91.07853,10,0.0.0.0,10.139.104.221,6,0
2013-11-11 16:57:04.250,67,6.7,52.17019,4.457977,0,0.347492,112.1642,9.034973,10,1384185391,0.4107666,0.7829895,0.5491486,-12.74986,-26.14128,-30.08162,90.59141,90.24838,10,0.0.0.0,10.139.104.221,6,0
2013-11-11 16:57:04.370,68,6.8,52.17019,4.457977,0,0.347492,112.1642,9.034973,10,1384185391,0.4946289,0.7221527,0.6002502,-12.1997,-26.90879,-30.885,90.15446,89.81144,10,0.0.0.0,10.139.104.221,6,0
2013-11-11 16:57:04.468,69,6.9,52.17019,4.457977,0,0.347492,112.1642,9.034973,10,1384185391,0.4946289,0.7221527,0.6002502,-12.63982,-27.23772,-30.65546,90.68526,90.34224,10,0.0.0.0,10.139.104.221,6,0
2013-11-11 16:57:04.563,70,7,52.17019,4.457977,0,0.347492,112.1642,9.034973,10,1384185391,0.546402,0.7026215,0.6053772,-11.8696,-25.70271,-30.99977,88.15214,87.80911,10,0.0.0.0,10.139.104.221,6,0
2013-11-11 16:57:04.655,71,7.1,52.17019,4.457977,0,0.347492,112.1642,9.034973,10,1384185391,0.5098114,0.6808929,0.6062622,-11.37446,-25.64788,-30.71284,88.37145,88.02843,10,0.0.0.0,10.139.104.221,6,0
2013-11-11 16:57:04.763,72,7.2,52.17019,4.457977,0,0.347492,112.1642,9.034973,10,1384185391,0.5111389,0.6988068,0.6441956,-12.36474,-26.08647,-31.28669,88.58944,88.24641,10,0.0.0.0,10.139.104.221,6,0
2013-11-11 16:57:04.865,73,7.3,52.17019,4.457977,0,0.347492,112.1642,9.034973,10,1384185391,0.5348358,0.7022247,0.6432953,-11.64954,-25.59307,-31.11454,88.55727,88.21425,10,0.0.0.0,10.139.104.221,6,0
2013-11-11 16:57:04.962,74,7.4,52.17019,4.457977,0,0.347492,112.1642,9.034973,10,1384185391,0.5867767,0.5655823,0.5611267,-12.1997,-25.26413,-30.5407,88.91022,88.5672,10,0.0.0.0,10.139.104.221,6,0
2013-11-11 16:57:05.197,75,7.5,52.17019,4.457977,0,0,112.1642,9.112941,5,1384185392,0.615509,0.5449982,0.6187134,-12.08966,-25.70271,-30.31116,89.84103,89.498,10,0.0.0.0,10.139.104.221,1,0
2013-11-11 16:57:05.284,76,7.6,52.17019,4.457977,0,0,112.1642,9.112941,5,1384185392,0.6407318,0.509903,0.6821899,-12.41975,-25.15449,-30.99977,88.66277,88.31974,10,0.0.0.0,10.139.104.221,1,0
2013-11-11 16:57:05.383,77,7.7,52.17019,4.457977,0,0,112.1642,9.112941,5,1384185392,0.6325836,0.4840393,0.7231293,-12.41975,-24.60627,-30.885,87.88789,87.54486,10,0.0.0.0,10.139.104.221,1,0
2013-11-11 16:57:05.487,78,7.8,52.17019,4.457977,0,0,112.1642,9.112941,5,1384185392,0.6325836,0.4840393,0.7231293,-11.70455,-25.31896,-31.51624,87.66236,87.31934,10,0.0.0.0,10.139.104.221,1,0
2013-11-11 16:57:05.583,79,7.9,52.17019,4.457977,0,0,112.1642,9.112941,5,1384185392,0.6569214,0.4983063,0.733902,-11.92462,-24.77073,-30.139,88.52314,88.18011,10,0.0.0.0,10.139.104.221,1,0
2013-11-11 16:57:05.705,80,8,52.17019,4.457977,0,0,112.1642,9.112941,5,1384185392,0.3805695,0.4766846,0.7610779,-11.97963,-25.59307,-31.34409,88.8718,88.52878,10,0.0.0.0,10.139.104.221,6,0
2013-11-11 16:57:05.804,81,8.1,52.17019,4.457977,0,0,112.1642,9.112941,5,1384185392,0.4144592,0.4458771,0.7788239,-11.31944,-24.38699,-31.57362,88.78562,88.4426,10,0.0.0.0,10.139.104.221,6,0
2013-11-11 16:57:05.905,82,8.2,52.17019,4.457977,0,0,112.1642,9.112941,5,1384185392,0.4684753,0.4517365,0.7897339,-11.53951,-24.49663,-31.22931,88.69225,88.34922,10,0.0.0.0,10.139.104.221,6,0
2013-11-11 16:57:06.135,83,8.3,52.17019,4.457977,0,0,112.1642,9.112941,5,1384185392,0.4353027,0.4194946,0.7166595,-13.13496,-24.11287,-31.74577,85.95924,85.61622,10,0.0.0.0,10.139.104.221,1,0
2013-11-11 16:57:06.247,84,8.400001,52.17019,4.457977,0,0,112.1642,9.112941,5,1384185392,0.4624329,0.344223,0.7744141,-13.52007,-23.72912,-31.80315,84.96165,84.61862,10,0.0.0.0,10.139.104.221,1,0
2013-11-11 16:57:06.380,85,8.5,52.17019,4.457977,0,0,112.1642,9.112941,5,1384185392,0.4832611,0.315033,0.7258911,-13.46505,-23.34537,-32.43439,83.28294,82.93992,10,0.0.0.0,10.139.104.221,1,0
2013-11-11 16:57:06.480,86,8.6,52.17019,4.457977,0,0,112.1642,9.112941,5,1384185392,0.4515076,0.2920837,0.7112274,-12.63982,-22.19411,-32.49178,83.40277,83.05975,10,0.0.0.0,10.139.104.221,1,0
2013-11-11 16:57:06.587,87,8.7,52.17019,4.457977,0,0,112.1642,9.210817,5,1384185393,0.4054565,0.2657166,0.7198792,-12.96991,-21.53624,-33.98376,83.56927,83.22625,10,0.0.0.0,10.139.104.221,1,0
2013-11-11 16:57:06.702,88,8.8,52.17019,4.457977,0,0,112.1642,9.210817,5,1384185393,0.4517212,0.3458099,0.8181763,-13.74014,-19.56265,-36.16438,81.64236,81.29933,10,0.0.0.0,10.139.104.221,1,0
2013-11-11 16:57:06.905,89,8.900001,52.17019,4.457977,0,0,112.1642,9.210817,5,1384185393,0.375061,0.2055206,0.8055725,-14.07022,-19.78194,-37.77114,87.14571,86.80269,10,0.0.0.0,10.139.104.221,1,0
2013-11-11 16:57:07.054,90,9,52.17019,4.457977,0,0,112.1642,9.210817,5,1384185393,0.4300232,0.1655731,0.8351135,-16.38089,-20.4398,-39.14838,90.14533,89.80231,15,0.0.0.0,10.139.104.221,1,0
2013-11-11 16:57:07.201,91,9.1,52.17019,4.457977,0,0,112.1642,9.210817,5,1384185393,0.5075073,0.1632538,0.7468414,-16.98606,-21.04285,-40.00915,89.52673,89.18371,15,0.0.0.0,10.139.104.221,1,0
2013-11-11 16:57:07.402,92,9.2,52.17019,4.457977,0,0,112.1642,9.210817,5,1384185393,0.5478821,0.09997559,0.7549438,-19.62682,-23.45501,-39.7796,89.73431,89.39128,15,0.0.0.0,10.139.104.221,1,0
2013-11-11 16:57:07.505,93,9.3,52.17019,4.457977,0,0,112.1642,9.210817,5,1384185393,0.5879211,0.2474365,1.04776,-19.79185,-26.36057,-38.34499,91.11765,90.77462,15,0.0.0.0,10.139.104.221,1,0
2013-11-11 16:57:07.603,94,9.400001,52.17019,4.457977,0,0,112.1642,9.491589,10,1384185394,0.6627045,0.9116364,1.390961,-19.90189,-26.25093,-37.42684,91.4414,91.09837,15,0.0.0.0,10.139.104.221,1,0
2013-11-11 16:57:07.699,95,9.5,52.17019,4.457977,0,0,112.1642,9.491589,10,1384185394,0.7397614,0.925293,0.6892853,-19.13168,-27.34736,-37.77114,90.98495,90.64192,15,0.0.0.0,10.139.104.221,1,0
2013-11-11 16:57:07.911,96,9.6,52.17019,4.457977,0,0,112.1642,9.491589,10,1384185394,0.07844543,-0.07836914,0.3105927,-18.63653,-27.84076,-36.4513,91.97176,91.62873,15,0.0.0.0,10.139.104.221,1,0
2013-11-11 16:57:08.112,97,9.7,52.17019,4.457977,0,0,112.1642,9.491589,10,1384185394,0.0635376,-0.2927551,0.672287,-17.97634,-26.41539,-37.71376,90.6113,90.26827,15,0.0.0.0,10.139.104.221,1,0
2013-11-11 16:57:08.243,98,9.8,52.17019,4.457977,0,0,112.1642,9.491589,10,1384185394,0.7609253,0.5311584,0.7030487,-16.71098,-25.37377,-37.77114,90.36027,90.01724,15,0.0.0.0,10.139.104.221,1,0
2013-11-11 16:57:08.341,99,9.900001,52.17019,4.457977,0,0,112.1642,9.491589,10,1384185394,0.9233246,0.562149,0.598465,-17.09608,-24.99002,-36.79562,87.57881,87.23579,15,0.0.0.0,10.139.104.221,1,0
2013-11-11 16:57:08.446,100,10,52.17019,4.457977,0,0,112.1642,9.491589,10,1384185394,0.8155365,0.2846222,0.5783234,-17.81129,-24.38698,-35.59053,87.58485,87.24182,15,0.0.0.0,10.139.104.221,1,0
2013-11-11 16:57:08.546,101,10.1,52.17019,4.457977,0,0,112.1642,9.491589,10,1384185394,0.8712311,-0.04907227,0.6485291,-17.15111,-24.05805,-36.04961,84.94187,84.59885,15,0.0.0.0,10.139.104.221,1,0
2013-11-11 16:57:08.651,102,10.2,52.17019,4.457977,0,0,112.1642,9.491589,10,1384185394,1.034622,0.08355713,0.6556549,-17.04108,-25.04485,-34.90192,85.5742,85.23118,15,0.0.0.0,10.139.104.221,1,0
2013-11-11 16:57:08.771,103,10.3,52.17019,4.457977,0,0,112.1642,9.491589,10,1384185394,0.6643524,0.6096954,0.6391907,-17.92133,-23.61948,-36.50869,82.86774,82.52472,15,0.0.0.0,10.139.104.221,1,0
2013-11-11 16:57:08.875,104,10.4,52.17019,4.457977,0,0,112.1642,9.636834,10,1384185395,0.6643524,0.6096954,0.6391907,-18.58151,-23.29055,-36.62345,82.49268,82.14966,15,0.0.0.0,10.139.104.221,1,0
2013-11-11 16:57:08.950,105,10.5,52.17019,4.457977,0,0,112.1642,9.636834,10,1384185395,0.3800507,0.9364014,0.6946716,-18.41647,-23.89359,-38.05807,81.17124,80.82822,15,0.0.0.0,10.139.104.221,1,0
2013-11-11 16:57:09.220,106,10.6,52.17019,4.457977,0,0,112.1642,9.636834,10,1384185395,0.387619,0.7691498,0.4770508,-17.75628,-22.24893,-37.25468,78.85589,78.51286,15,0.0.0.0,10.139.104.221,1,0
2013-11-11 16:57:09.350,107,10.7,52.17019,4.457977,0,0,112.1642,9.636834,10,1384185395,0.4206543,0.7475586,0.4343872,-16.32587,-20.9332,-38.86145,75.28911,74.94608,15,0.0.0.0,10.139.104.221,1,0
2013-11-11 16:57:09.497,108,10.8,52.17019,4.457977,0,0,112.1642,9.636834,10,1384185395,0.5469055,0.6428223,0.367981,-13.68512,-19.50783,-38.28761,71.86912,71.52609,15,0.0.0.0,10.139.104.221,1,0
2013-11-11 16:57:09.665,109,10.9,52.17019,4.457977,0,0,112.1642,9.636834,10,1384185395,0.6190948,0.5080414,0.4270325,-10.98935,-19.89158,-35.24623,71.94837,71.60535,15,0.0.0.0,10.139.104.221,1,0
2013-11-11 16:57:09.835,110,11,52.17019,4.457977,0,0,112.1642,9.636834,10,1384185395,0.5597076,0.528717,0.4218903,-7.413326,-22.13928,-32.09008,74.40521,74.06219,15,0.0.0.0,10.139.104.221,1,0
2013-11-11 16:57:09.937,111,11.1,52.17019,4.457977,0,0,112.1642,9.636834,10,1384185395,0.5786285,1.105713,0.7271271,-5.597809,-22.52304,-31.22931,73.20031,72.85728,15,0.0.0.0,10.139.104.221,1,0
2013-11-11 16:57:10.178,112,11.2,52.17019,4.457977,0,0,112.1642,9.636834,10,1384185395,0.5516205,1.630203,0.3069916,-5.542797,-24.66109,-31.28669,77.3213,76.97828,15,0.0.0.0,10.139.104.221,1,0
2013-11-11 16:57:10.282,113,11.3,52.17019,4.457977,0,0,112.1642,9.636834,10,1384185395,0.4066772,1.41124,0.8493042,-5.157684,-25.59307,-31.91793,77.13291,76.78989,15,0.0.0.0,10.139.104.221,1,0
2013-11-11 16:57:10.402,114,11.4,52.17019,4.457975,0,0.04205432,91.40411,9.5,5,1384185396,0.9353333,1.372437,0.6372833,-4.112385,-28.82756,-28.53223,86.50257,86.15955,15,0.0.0.0,10.139.104.221,1,0
2013-11-11 16:57:10.487,115,11.5,52.17019,4.457975,0,0.04205432,91.40411,9.5,5,1384185396,0.5396271,1.060913,0.1127625,-3.397182,-30.52704,-27.44193,87.43219,87.08916,15,0.0.0.0,10.139.104.221,1,0
2013-11-11 16:57:10.583,116,11.6,52.17019,4.457975,0,0.04205432,91.40411,9.5,5,1384185396,0.08021545,0.924118,0.1862793,-3.947342,-30.52704,-30.31116,83.12738,82.78436,15,0.0.0.0,10.139.104.221,1,0
2013-11-11 16:57:10.682,117,11.7,52.17019,4.457975,0,0.04205432,91.40411,9.5,5,1384185396,0.0997467,0.3585663,0.1557007,-4.442482,-31.45901,-27.95839,85.6384,85.29537,15,0.0.0.0,10.139.104.221,1,0
2013-11-11 16:57:10.811,118,11.8,52.17019,4.457975,0,0.04205432,91.40411,9.5,5,1384185396,0.2055206,0.2664337,0.1398163,-4.607529,-30.96561,-27.78624,87.8124,87.46938,15,0.0.0.0,10.139.104.221,1,0
2013-11-11 16:57:11.167,119,11.9,52.17019,4.457975,0,0.04205432,91.40411,9.5,5,1384185396,0.3410492,0.72612,0.4789124,-6.478065,-30.74632,-33.75423,69.5171,69.17407,15,0.0.0.0,10.139.104.221,1,0
2013-11-11 16:57:11.281,120,12,52.17019,4.457975,0,0.04205432,91.40411,9.5,5,1384185396,0.5057678,0.8271332,0.5591278,-7.523361,-32.22652,-32.43439,68.68056,68.33754,15,0.0.0.0,10.139.104.221,1,0
2013-11-11 16:57:11.380,121,12.1,52.17019,4.457975,0,0.04205432,91.40411,9.5,5,1384185396,0.5554352,0.9986115,0.5014648,-10.05408,-32.88438,-32.09008,67.54901,67.20599,15,0.0.0.0,10.139.104.221,1,0
2013-11-11 16:57:11.488,122,12.2,52.17019,4.457975,0,0.04205432,91.40411,9.5,5,1384185396,0.5194855,1.026947,0.5294647,-13.41004,-28.99203,-33.5247,52.88661,52.54358,15,0.0.0.0,10.139.104.221,1,0
2013-11-11 16:57:11.595,123,12.3,52.17019,4.457979,0,0.1131255,85.95415,9.380893,5,1384185397,0.4344025,0.9920959,0.3802643,-13.07995,-25.922,-35.82008,47.3096,46.96657,15,0.0.0.0,10.139.104.221,1,0
2013-11-11 16:57:11.693,124,12.4,52.17019,4.457979,0,0.1131255,85.95415,9.380893,5,1384185397,0.3924561,0.9753571,0.2730408,-10.54922,-21.75553,-39.14838,35.04077,34.69774,15,0.0.0.0,10.139.104.221,1,0
2013-11-11 16:57:11.792,125,12.5,52.17019,4.457979,0,0.1131255,85.95415,9.380893,5,1384185397,0.3188477,0.9354858,0.349762,-5.597809,-22.08446,-40.1813,23.92218,23.57915,15,0.0.0.0,10.139.104.221,1,0
2013-11-11 16:57:11.895,126,12.6,52.17019,4.457979,0,0.1131255,85.95415,9.380893,5,1384185397,0.2504425,0.92453,0.3923798,-7.468346,-19.89158,-41.78806,358.9881,358.6451,15,0.0.0.0,10.139.104.221,1,0
2013-11-11 16:57:12.013,127,12.7,52.17019,4.457979,0,0.1131255,85.95415,9.380893,5,1384185397,0.4283295,1.019958,0.5310669,-2.351887,-17.64388,-42.4193,352.4682,352.1252,15,0.0.0.0,10.139.104.221,1,0
2013-11-11 16:57:12.204,128,12.8,52.17019,4.457979,0,0.1131255,85.95415,9.380893,5,1384185397,0.6074982,0.8458099,0.470871,1.55423,-13.86118,-44.19821,334.1891,333.8461,15,0.0.0.0,10.139.104.221,1,0
2013-11-11 16:57:12.287,129,12.9,52.17019,4.457979,0,0.1131255,85.95415,9.380893,5,1384185397,0.6606903,0.6562805,0.3771515,2.489498,-13.80635,-44.82945,326.5284,326.1854,15,0.0.0.0,10.139.104.221,1,0
2013-11-11 16:57:12.386,130,13,52.17019,4.457979,0,0.1131255,85.95415,9.380893,5,1384185397,0.6631622,0.6252289,0.4064484,4.360027,-14.68351,-44.02606,319.8628,319.5198,15,0.0.0.0,10.139.104.221,1,0
2013-11-11 16:57:12.487,131,13.1,52.17019,4.457979,0,0.1131255,85.95415,9.380893,5,1384185397,0.4825592,0.5443573,0.5782623,6.395607,-15.72512,-43.5096,307.2377,306.8947,15,0.0.0.0,10.139.104.221,1,0
2013-11-11 16:57:12.582,132,13.2,52.17019,4.457979,0,0.1131255,85.95415,9.380893,5,1384185397,0.33815,0.5188751,0.4677582,6.285576,-16.71191,-42.36191,304.6392,304.2961,15,0.0.0.0,10.139.104.221,1,0
2013-11-11 16:57:12.721,133,13.3,52.1702,4.45798,0,0.2635243,39.88591,9.249279,5,1384185398,0.3619995,0.5313568,0.3879852,10.5768,-18.46621,-43.16529,292.8884,292.5454,15,0.0.0.0,10.139.104.221,1,0
2013-11-11 16:57:12.908,134,13.4,52.1702,4.45798,0,0.2635243,39.88591,9.249279,5,1384185398,0.7583466,0.6521301,0.6744843,12.11724,-23.29054,-38.45976,274.9176,274.5746,10,0.0.0.0,10.139.104.221,1,0
2013-11-11 16:57:13.068,135,13.5,52.1702,4.45798,0,0.2635243,39.88591,9.249279,5,1384185398,0.791748,0.8716278,0.8142548,16.29843,-28.11487,-35.01669,260.7691,260.4261,10,0.0.0.0,10.139.104.221,1,0
2013-11-11 16:57:13.209,136,13.6,52.1702,4.45798,0,0.2635243,39.88591,9.249279,5,1384185398,0.7320557,0.8238373,0.5834045,16.5185,-28.88238,-34.67239,246.439,246.0959,10,0.0.0.0,10.139.104.221,1,0
2013-11-11 16:57:13.407,137,13.7,52.1702,4.45798,0,0.2635243,39.88591,9.249279,5,1384185398,0.4963226,0.5591125,0.6192017,18.60909,-35.35137,-29.27824,239.4637,239.1207,10,0.0.0.0,10.139.104.221,1,0
2013-11-11 16:57:13.508,138,13.8,52.1702,4.457974,0,0.3705765,341.2159,9.214697,5,1384185399,0.4732666,0.5740051,0.59375,17.50878,-35.78994,-28.93393,237.4725,237.1295,10,0.0.0.0,10.139.104.221,1,0
2013-11-11 16:57:13.604,139,13.9,52.1702,4.457974,0,0.3705765,341.2159,9.214697,5,1384185399,0.5032349,0.591156,0.6123199,16.68354,-36.28334,-27.26978,236.1684,235.8254,10,0.0.0.0,10.139.104.221,1,0
2013-11-11 16:57:13.709,140,14,52.1702,4.457974,0,0.3705765,341.2159,9.214697,5,1384185399,0.7036133,0.5934753,0.658844,17.12367,-38.36657,-24.40055,233.724,233.381,10,0.0.0.0,10.139.104.221,1,0
2013-11-11 16:57:13.808,141,14.1,52.1702,4.457974,0,0.3705765,341.2159,9.214697,5,1384185399,0.6014862,0.5373383,0.6040649,16.79358,-37.37978,-23.94147,231.1022,230.7592,10,0.0.0.0,10.139.104.221,1,0
2013-11-11 16:57:13.904,142,14.2,52.1702,4.457974,0,0.3705765,341.2159,9.214697,5,1384185399,0.4513092,0.4858551,0.6328278,18.16897,-37.54424,-25.37608,230.9155,230.5725,10,0.0.0.0,10.139.104.221,1,0
2013-11-11 16:57:14.045,143,14.3,52.1702,4.457974,0,0.3705765,341.2159,9.214697,5,1384185399,0.4468536,0.5413513,0.7095795,19.70941,-37.54424,-24.68747,231.4354,231.0923,10,0.0.0.0,10.139.104.221,1,0
2013-11-11 16:57:14.231,144,14.4,52.1702,4.457974,0,0.3705765,341.2159,9.214697,5,1384185399,0.561142,0.4528809,0.687851,21.02978,-36.22852,-22.7364,231.3548,231.0118,10,0.0.0.0,10.139.104.221,1,0
2013-11-11 16:57:14.429,145,14.5,52.1702,4.457974,0,0.3705765,341.2159,9.214697,5,1384185399,0.3755188,0.2316742,0.781189,21.74499,-38.14729,-19.00641,230.3871,230.044,10,0.0.0.0,10.139.104.221,1,0
2013-11-11 16:57:14.547,146,14.6,52.1702,4.457974,0,0.3705765,341.2159,9.214697,5,1384185399,0.4675446,0.2023621,0.7689667,21.57994,-39.40818,-17.34225,228.3319,227.9888,10,0.0.0.0,10.139.104.221,1,0
2013-11-11 16:57:14.849,147,14.7,52.17021,4.457963,0,0.4283417,299.209,9.129501,5,1384185400,0.3669586,0.2561493,0.6584015,19.04922,-39.95641,-16.07979,223.666,223.323,10,0.0.0.0,10.139.104.221,1,0
2013-11-11 16:57:14.966,148,14.8,52.17021,4.457963,0,0.4283417,299.209,9.129501,5,1384185400,0.3669586,0.2561493,0.6584015,18.38903,-40.39498,-15.96502,222.1263,221.7833,10,0.0.0.0,10.139.104.221,1,0
2013-11-11 16:57:15.154,149,14.9,52.17021,4.457963,0,0.4283417,299.209,9.129501,5,1384185400,0.5271301,0.33255,1.032684,21.0848,-40.55945,-13.03841,224.9981,224.6551,10,0.0.0.0,10.139.104.221,1,0
2013-11-11 16:57:15.304,150,15,52.17021,4.457963,0,0.4283417,299.209,9.129501,5,1384185400,0.5223541,0.2028961,0.8402557,21.91003,-40.06605,-12.17764,224.9369,224.5939,10,0.0.0.0,10.139.104.221,1,0
2013-11-11 16:57:15.386,151,15.1,52.17021,4.457963,0,0.4283417,299.209,9.129501,5,1384185400,0.29776,0.1580353,0.681778,22.51521,-39.57265,-12.23502,227.1231,226.78,10,0.0.0.0,10.139.104.221,1,0
2013-11-11 16:57:15.484,152,15.2,52.17021,4.457963,0,0.4283417,299.209,9.129501,5,1384185400,0.2981415,0.2534943,0.7545471,21.85502,-39.79194,-12.92364,228.3374,227.9944,10,0.0.0.0,10.139.104.221,1,0
2013-11-11 16:57:15.581,153,15.3,52.17021,4.457963,0,0.4283417,299.209,9.129501,5,1384185400,0.412796,0.216568,0.8164062,20.86473,-40.88838,-12.00549,226.349,226.006,10,0.0.0.0,10.139.104.221,1,0
2013-11-11 16:57:15.702,154,15.4,52.17021,4.457963,0,0.4283417,299.209,9.129501,5,1384185400,0.3281403,0.09216309,0.8125153,19.92947,-41.38178,-12.06287,224.2247,223.8817,10,0.0.0.0,10.139.104.221,1,0
2013-11-11 16:57:15.869,155,15.5,52.17021,4.457963,0,0.4283417,299.209,9.129501,5,1384185400,0.3968811,0.03890991,0.8031921,23.23041,-39.95641,-9.767494,223.2943,222.9513,10,0.0.0.0,10.139.104.221,1,0
2013-11-11 16:57:16.072,156,15.6,52.17021,4.457951,0,0.4366747,287.8259,9.0123,5,1384185401,0.4228516,0.07336426,0.7778931,22.51521,-39.24372,-9.939644,220.6029,220.2599,10,0.0.0.0,10.139.104.221,1,0
2013-11-11 16:57:16.201,157,15.7,52.17021,4.457951,0,0.4366747,287.8259,9.0123,5,1384185401,0.4829865,0.1082153,0.7644043,22.95533,-41.87517,-4.430733,223.4476,223.1046,10,0.0.0.0,10.139.104.221,1,0
2013-11-11 16:57:16.305,158,15.8,52.17021,4.457951,0,0.4366747,287.8259,9.0123,5,1384185401,0.4646606,0.08013916,0.7556458,26.03621,-38.47621,6.128029,229.8915,229.5485,10,0.0.0.0,10.139.104.221,1,0
2013-11-11 16:57:16.386,159,15.9,52.17021,4.457951,0,0.4366747,287.8259,9.0123,5,1384185401,0.3669739,0.07769775,0.7017212,32.41803,-23.78394,24.14677,245.6792,245.3362,10,0.0.0.0,10.139.104.221,1,0
2013-11-11 16:57:16.483,160,16,52.17021,4.457951,0,0.4366747,287.8259,9.0123,5,1384185401,0.5295105,0.08319092,0.693573,37.2044,-11.55866,30.63123,261.844,261.501,10,0.0.0.0,10.139.104.221,1,0
2013-11-11 16:57:16.593,161,16.1,52.17021,4.457951,0,0.4366747,287.8259,9.0123,5,1384185401,0.7052612,0.2240295,0.6607971,37.36944,-8.543449,30.57384,262.627,262.284,10,0.0.0.0,10.139.104.221,1,0
2013-11-11 16:57:16.688,162,16.2,52.17021,4.457951,0,0.4366747,287.8259,9.0123,5,1384185401,0.6451721,0.3432312,0.740097,37.64452,-12.10687,28.45061,255.4303,255.0872,10,0.0.0.0,10.139.104.221,1,0
2013-11-11 16:57:16.788,163,16.3,52.17021,4.457951,0,0.4366747,287.8259,9.0123,5,1384185401,0.5322571,0.5167694,0.6642303,39.01991,-16.65709,25.86831,248.6154,248.2724,10,0.0.0.0,10.139.104.221,1,0
2013-11-11 16:57:16.881,164,16.4,52.17021,4.457951,0,0,287.8259,9.04962,5,1384185402,0.583252,0.5314178,0.6682892,39.51505,-19.23372,20.30201,248.3012,247.9581,10,0.0.0.0,10.139.104.221,1,0
2013-11-11 16:57:16.975,165,16.5,52.17021,4.457951,0,0,287.8259,9.04962,5,1384185402,0.5753326,0.4668732,0.6421356,41.05549,-20.33016,11.92387,254.4377,254.0947,10,0.0.0.0,10.139.104.221,1,0
2013-11-11 16:57:17.188,166,16.6,52.17021,4.457951,0,0,287.8259,9.04962,5,1384185402,0.5379791,0.4624176,0.717926,39.01991,-24.99002,9.226791,250.9767,250.6337,10,0.0.0.0,10.139.104.221,1,0
2013-11-11 16:57:17.286,167,16.7,52.17021,4.457951,0,0,287.8259,9.04962,5,1384185402,0.5084991,0.6284332,0.5285034,33.07822,-30.03364,6.128029,244.6508,244.3078,10,0.0.0.0,10.139.104.221,1,0
2013-11-11 16:57:17.383,168,16.8,52.17021,4.457951,0,0,287.8259,9.04962,5,1384185402,0.4931183,0.6289978,0.5595856,24.05564,-38.6955,-0.8728867,238.2294,237.8864,10,0.0.0.0,10.139.104.221,1,0
2013-11-11 16:57:17.487,169,16.9,52.17021,4.457951,0,0,287.8259,9.04962,5,1384185402,0.4907684,0.6635742,0.4855042,22.29514,-38.91479,-10.39873,243.7746,243.4315,10,0.0.0.0,10.139.104.221,1,0
2013-11-11 16:57:17.581,170,17,52.17021,4.457951,0,0,287.8259,9.04962,5,1384185402,0.4977417,0.648819,0.490448,23.06536,-37.16049,-13.49748,244.7957,244.4527,10,0.0.0.0,10.139.104.221,1,0
2013-11-11 16:57:17.680,171,17.1,52.17021,4.457951,0,0,287.8259,9.04962,5,1384185402,0.459137,0.6478882,0.4104767,24.27571,-32.00723,-22.10516,250.8828,250.5398,10,0.0.0.0,10.139.104.221,1,0
2013-11-11 16:57:17.786,172,17.2,52.17021,4.457951,0,0,287.8259,9.04962,5,1384185402,0.3409119,0.8150635,0.4835663,20.80972,-27.6763,-29.50777,252.3949,252.0518,10,0.0.0.0,10.139.104.221,1,0
2013-11-11 16:57:17.885,173,17.3,52.17021,4.457951,0,0,287.8259,9.105152,5,1384185403,0.4055634,0.9306488,0.5467834,18.16897,-24.1677,-33.5247,255.5583,255.2152,10,0.0.0.0,10.139.104.221,1,0
2013-11-11 16:57:17.986,174,17.4,52.17021,4.457951,0,0,287.8259,9.105152,5,1384185403,0.5274963,0.9502869,0.6095123,17.28872,-19.12408,-35.70531,259.8768,259.5338,10,0.0.0.0,10.139.104.221,1,0
2013-11-11 16:57:18.191,175,17.5,52.17021,4.457951,0,0,287.8259,9.105152,5,1384185403,0.5876465,1.029922,0.5783997,18.66411,-14.35457,-36.4513,263.8853,263.5423,10,0.0.0.0,10.139.104.221,1,0
2013-11-11 16:57:18.287,176,17.6,52.17021,4.457951,0,0,287.8259,9.105152,5,1384185403,0.4726105,1.098419,0.6585693,16.84859,-10.90079,-39.14838,262.0349,261.6918,10,0.0.0.0,10.139.104.221,1,0
2013-11-11 16:57:18.391,177,17.7,52.17021,4.457951,0,0,287.8259,9.105152,5,1384185403,0.4408112,1.048447,0.5738831,14.86803,-8.707915,-39.03361,268.88,268.537,10,0.0.0.0,10.139.104.221,1,0
2013-11-11 16:57:18.470,178,17.8,52.17021,4.457951,0,0,287.8259,9.105152,5,1384185403,0.2796631,0.8628082,0.3312988,13.21756,-10.35257,-40.41084,279.505,279.162,10,0.0.0.0,10.139.104.221,1,0
2013-11-11 16:57:18.568,179,17.9,52.17021,4.457951,0,0,287.8259,9.105152,5,1384185403,0.4143829,0.7422791,0.375946,15.74828,-11.01043,-39.95176,283.1033,282.7603,10,0.0.0.0,10.139.104.221,1,0
2013-11-11 16:57:18.688,180,18,52.17021,4.457951,0,0,287.8259,9.105152,5,1384185403,0.5496368,0.7345886,0.3628998,15.4732,-11.94241,-38.97623,284.0351,283.692,10,0.0.0.0,10.139.104.221,1,0
2013-11-11 16:57:18.797,181,18.1,52.17021,4.457951,0,0,287.8259,9.191275,5,1384185404,0.3270111,0.7876129,0.3336334,15.1431,-12.81956,-37.94331,279.6577,279.3147,10,0.0.0.0,10.139.104.221,1,0
2013-11-11 16:57:18.886,182,18.2,52.17021,4.457951,0,0,287.8259,9.191275,5,1384185404,0.3453522,0.974411,0.6068115,15.41818,-12.54545,-38.34499,278.018,277.675,10,0.0.0.0,10.139.104.221,1,0
2013-11-11 16:57:18.968,183,18.3,52.17021,4.457951,0,0,287.8259,9.191275,5,1384185404,0.4910889,1.080429,0.6557922,13.7127,-11.28455,-39.7796,278.5579,278.2149,10,0.0.0.0,10.139.104.221,1,0
2013-11-11 16:57:19.190,184,18.4,52.17021,4.457951,0,0,287.8259,9.191275,5,1384185404,0.7055817,0.8501892,0.6299591,14.09781,-13.20331,-39.49268,275.025,274.682,10,0.0.0.0,10.139.104.221,1,0
2013-11-11 16:57:19.283,185,18.5,52.17021,4.457951,0,0,287.8259,9.191275,5,1384185404,0.752121,0.651413,0.5809937,15.25313,-14.90279,-37.48422,272.1765,271.8335,10,0.0.0.0,10.139.104.221,1,0
2013-11-11 16:57:19.394,186,18.6,52.17021,4.457951,0,0,287.8259,9.191275,5,1384185404,0.7513885,0.423111,0.4053802,17.28872,-16.82156,-35.70531,265.5983,265.2553,10,0.0.0.0,10.139.104.221,1,0
2013-11-11 16:57:19.492,187,18.7,52.17021,4.457951,0,0,287.8259,9.191275,5,1384185404,0.7008514,0.4962463,0.4935913,19.26928,-19.01444,-33.63947,262.5728,262.2298,10,0.0.0.0,10.139.104.221,1,0
2013-11-11 16:57:19.594,188,18.8,52.17021,4.457951,0,0,287.8259,9.191275,5,1384185404,0.655304,0.6874237,0.5688477,21.13981,-21.31696,-32.49178,258.3974,258.0544,10,0.0.0.0,10.139.104.221,1,0
2013-11-11 16:57:19.671,189,18.9,52.17021,4.457951,0,0,287.8259,9.191275,5,1384185404,0.5383911,0.7932434,0.6644897,20.31458,-23.56466,-30.02423,251.1688,250.8258,10,0.0.0.0,10.139.104.221,1,0
2013-11-11 16:57:19.767,190,19,52.17021,4.457951,0,0,287.8259,9.191275,5,1384185404,0.555954,0.68927,0.661911,18.60909,-24.82556,-29.16346,246.1799,245.8369,10,0.0.0.0,10.139.104.221,1,0
2013-11-11 16:57:19.873,191,19.1,52.17021,4.457951,0,0,287.8259,9.191275,5,1384185404,0.5829773,0.5562744,0.6059113,16.9036,-27.40219,-29.33562,238.9685,238.6255,10,0.0.0.0,10.139.104.221,1,0
2013-11-11 16:57:19.975,192,19.2,52.1702,4.457949,0,0.2960286,182.0802,9.062115,5,1384185405,0.5422516,0.5688934,0.5054321,15.85831,-27.56665,-28.81916,235.8498,235.5068,10,0.0.0.0,10.139.104.221,1,0
2013-11-11 16:57:20.195,193,19.3,52.1702,4.457949,0,0.2960286,182.0802,9.062115,5,1384185405,0.7103577,0.4511871,0.7186279,15.41818,-29.86917,-28.81916,231.7507,231.4077,10,0.0.0.0,10.139.104.221,1,0
2013-11-11 16:57:20.336,194,19.4,52.1702,4.457949,0,0.2960286,182.0802,9.062115,5,1384185405,0.7856445,0.4130249,0.6625824,15.36317,-29.81435,-29.45039,230.9858,230.6427,10,0.0.0.0,10.139.104.221,1,0
2013-11-11 16:57:20.462,195,19.5,52.1702,4.457949,0,0.2960286,182.0802,9.062115,5,1384185405,0.6318512,0.4640503,0.5615692,15.80329,-27.73112,-34.27069,239.6924,239.3494,10,0.0.0.0,10.139.104.221,6,0
2013-11-11 16:57:20.563,196,19.6,52.1702,4.457949,0,0.2960286,182.0802,9.062115,5,1384185405,0.2483368,0.6306152,0.6345825,15.25313,-27.1829,-33.92638,239.8703,239.5272,10,0.0.0.0,10.139.104.221,6,0
2013-11-11 16:57:20.636,197,19.7,52.1702,4.457949,0,0.2960286,182.0802,9.062115,5,1384185405,0.2483368,0.6306152,0.6345825,14.92304,-25.86717,-35.53315,242.6665,242.3235,10,0.0.0.0,10.139.104.221,6,0
2013-11-11 16:57:20.736,198,19.8,52.1702,4.457949,0,0.2960286,182.0802,9.062115,5,1384185405,0.3916473,0.3062134,0.6311188,15.58323,-24.88038,-36.10699,246.3867,246.0437,10,0.0.0.0,10.139.104.221,6,0
2013-11-11 16:57:20.849,199,19.9,52.1702,4.457949,0,0.2960286,182.0802,9.062115,5,1384185405,0.5013275,0.2381134,0.6881866,14.31787,-23.40019,-36.16438,248.8744,248.5314,10,0.0.0.0,10.139.104.221,6,0
2013-11-11 16:57:20.962,200,20,52.1702,4.457949,0,0,182.0802,9.090296,5,1384185406,0.4402924,0.25177,0.6596832,14.37288,-19.39818,-39.89437,260.7813,260.4383,10,0.0.0.0,10.139.104.221,6,0
2013-11-11 16:57:21.155,201,20.1,52.1702,4.457949,0,0,182.0802,9.090296,5,1384185406,0.3845825,0.3836365,0.9648285,13.54765,-17.15049,-40.29607,264.401,264.058,10,0.0.0.0,10.139.104.221,6,0
2013-11-11 16:57:21.269,202,20.2,52.1702,4.457949,0,0,182.0802,9.090296,5,1384185406,0.05076599,0.342514,0.7601471,12.06223,-15.34137,-41.15684,267.2974,266.9544,10,0.0.0.0,10.139.104.221,6,0
2013-11-11 16:57:21.376,203,20.3,52.1702,4.457949,0,0,182.0802,9.090296,5,1384185406,0.1888123,0.2200165,0.7035828,11.51207,-13.69671,-42.99314,272.5865,272.2435,10,0.0.0.0,10.139.104.221,6,0
2013-11-11 16:57:21.454,204,20.4,52.1702,4.457949,0,0,182.0802,9.090296,5,1384185406,0.3570404,0.0693512,0.8399506,12.6674,-14.19011,-42.24715,272.5887,272.2456,10,0.0.0.0,10.139.104.221,6,0
2013-11-11 16:57:21.570,205,20.5,52.1702,4.457949,0,0,182.0802,9.090296,5,1384185406,0.390686,-0.0206604,0.7906647,12.72241,-13.80636,-42.30453,274.3731,274.0301,10,0.0.0.0,10.139.104.221,6,0
2013-11-11 16:57:21.675,206,20.6,52.1702,4.457949,0,0,182.0802,9.090296,5,1384185406,0.3913422,-0.07893372,0.7236481,13.05251,-14.68351,-41.73068,274.0404,273.6974,10,0.0.0.0,10.139.104.221,6,0
2013-11-11 16:57:21.790,207,20.7,52.1702,4.457949,0,0,182.0802,9.090296,5,1384185406,0.4346008,-0.05262756,0.7003632,13.3826,-15.12208,-41.96022,273.4012,273.0582,10,0.0.0.0,10.139.104.221,6,0
2013-11-11 16:57:21.871,208,20.8,52.1702,4.457949,0,0,182.0802,9.090296,5,1384185406,0.4420013,0.09799194,0.6260223,14.48291,-15.99923,-42.18976,271.9687,271.6257,10,0.0.0.0,10.139.104.221,6,0
2013-11-11 16:57:21.987,209,20.9,52.1702,4.457949,0,0,182.0802,9.090296,5,1384185406,0.3603516,0.2104187,0.6663055,14.53793,-16.71192,-40.52561,267.2878,266.9447,10,0.0.0.0,10.139.104.221,6,0
2013-11-11 16:57:22.199,210,21,52.1702,4.457949,0,0,182.0802,9.090296,5,1384185406,0.5310516,0.1669617,0.7780762,14.64796,-16.49262,-40.98468,268.5968,268.2538,10,0.0.0.0,10.139.104.221,6,0
2013-11-11 16:57:22.295,211,21.1,52.1702,4.457949,0,0,182.0802,9.168018,5,1384185407,0.5065155,0.05786133,0.6517029,15.1431,-15.77994,-41.15684,270.504,270.161,10,0.0.0.0,10.139.104.221,6,0
2013-11-11 16:57:22.388,212,21.2,52.1702,4.457949,0,0,182.0802,9.168018,5,1384185407,0.420929,0.2444305,0.5613098,15.80329,-16.54745,-40.46822,267.9617,267.6187,10,0.0.0.0,10.139.104.221,6,0
2013-11-11 16:57:22.487,213,21.3,52.1702,4.457949,0,0,182.0802,9.168018,5,1384185407,0.3748322,0.4227448,0.4009857,15.58323,-17.20531,-40.12392,266.2195,265.8765,10,0.0.0.0,10.139.104.221,6,0
2013-11-11 16:57:22.593,214,21.4,52.1702,4.457949,0,0,182.0802,9.168018,5,1384185407,0.342804,0.564743,0.4715576,14.97805,-16.93121,-41.09946,268.9038,268.5608,10,0.0.0.0,10.139.104.221,6,0
2013-11-11 16:57:22.697,215,21.5,52.1702,4.457949,0,0,182.0802,9.168018,5,1384185407,0.3661652,0.6453857,0.795639,16.35345,-16.32816,-39.7796,267.0561,266.7131,10,0.0.0.0,10.139.104.221,6,0
2013-11-11 16:57:22.783,216,21.6,52.1702,4.457949,0,0,182.0802,9.168018,5,1384185407,0.3711395,0.7914429,0.858551,16.02335,-16.76674,-40.12392,266.0587,265.7157,10,0.0.0.0,10.139.104.221,6,0
2013-11-11 16:57:22.882,217,21.7,52.1702,4.457949,0,0,182.0802,9.168018,5,1384185407,0.561203,0.9142303,0.694458,16.02335,-15.99923,-41.04207,268.6857,268.3427,10,0.0.0.0,10.139.104.221,6,0
2013-11-11 16:57:22.996,218,21.8,52.1702,4.457949,0,0,182.0802,9.168018,5,1384185407,0.6334076,0.4722137,0.3892059,17.45376,-14.90279,-40.12392,270.3317,269.9887,10,0.0.0.0,10.139.104.221,6,0
2013-11-11 16:57:23.198,219,21.9,52.1702,4.457949,0,0,182.0802,9.197113,5,1384185408,0.8001251,0.5636597,0.4928436,16.1884,-15.1769,-40.06653,268.4069,268.0639,10,0.0.0.0,10.139.104.221,6,0
2013-11-11 16:57:23.298,220,22,52.1702,4.457949,0,0,182.0802,9.197113,5,1384185408,0.8444824,0.8596344,0.3559265,16.62852,-13.86118,-40.98468,272.6878,272.3448,10,0.0.0.0,10.139.104.221,6,0
2013-11-11 16:57:23.388,221,22.1,52.1702,4.457949,0,0,182.0802,9.197113,5,1384185408,0.6803436,1.121674,0.4441681,15.58323,-14.24493,-40.00915,272.0754,271.7324,10,0.0.0.0,10.139.104.221,6,0
2013-11-11 16:57:23.487,222,22.2,52.1702,4.457949,0,0,182.0802,9.197113,5,1384185408,0.6019592,1.104309,0.6230621,15.74828,-13.86118,-41.32899,275.4422,275.0992,10,0.0.0.0,10.139.104.221,6,0
2013-11-11 16:57:23.586,223,22.3,52.1702,4.457949,0,0,182.0802,9.197113,5,1384185408,0.6019592,1.104309,0.6230621,17.2337,-14.13528,-41.04207,275.0055,274.6624,10,0.0.0.0,10.139.104.221,6,0
2013-11-11 16:57:23.694,224,22.4,52.1702,4.457949,0,0,182.0802,9.197113,5,1384185408,0.281601,1.077484,0.5176849,18.55407,-14.90279,-40.81253,273.3524,273.0094,10,0.0.0.0,10.139.104.221,6,0
2013-11-11 16:57:23.811,225,22.5,52.1702,4.457949,0,0,182.0802,9.197113,5,1384185408,0.4013672,0.9875183,0.5583038,16.5185,-15.72512,-40.1813,274.7018,274.3588,10,0.0.0.0,10.139.104.221,6,0
2013-11-11 16:57:23.911,226,22.6,52.1702,4.457949,0,0,182.0802,9.197113,5,1384185408,0.5805817,0.6965179,0.4371185,18.11395,-17.86317,-38.17284,272.9,272.557,10,0.0.0.0,10.139.104.221,6,0
2013-11-11 16:57:24.107,227,22.7,52.1702,4.457949,0,0,182.0802,9.238602,5,1384185409,0.5709381,0.8679199,0.4570618,21.91003,-21.97482,-35.47576,265.3879,265.0449,10,0.0.0.0,10.139.104.221,6,0
2013-11-11 16:57:24.210,228,22.8,52.1702,4.457949,0,0,182.0802,9.238602,5,1384185409,0.6268921,0.8353271,0.6501312,22.95533,-24.22252,-33.35254,258.9539,258.6109,10,0.0.0.0,10.139.104.221,6,0
2013-11-11 16:57:24.316,229,22.9,52.1702,4.457949,0,0,182.0802,9.238602,5,1384185409,0.6195374,0.7667999,0.5130005,23.34044,-24.71592,-33.06562,257.2955,256.9525,10,0.0.0.0,10.139.104.221,6,0
2013-11-11 16:57:24.511,230,23,52.1702,4.457949,0,0,182.0802,9.238602,5,1384185409,0.7357941,0.5362244,0.5598297,25.92618,-24.00323,-30.36855,259.2734,258.9304,10,0.0.0.0,10.139.104.221,6,0
2013-11-11 16:57:24.705,231,23.1,52.1702,4.457949,0,0,182.0802,9.238602,5,1384185409,0.5910645,0.7121277,0.5665741,25.48605,-23.6743,-31.86053,262.8926,262.5496,10,0.0.0.0,10.139.104.221,6,0
2013-11-11 16:57:24.808,232,23.2,52.1702,4.457949,0,0,182.0802,9.238602,5,1384185409,0.4078217,0.7823181,0.5734558,25.04593,-25.75753,-30.25378,256.399,256.056,10,0.0.0.0,10.139.104.221,6,0
2013-11-11 16:57:24.960,233,23.3,52.1702,4.457949,0.5476036,0,182.0802,9.870751,10,1384185410,0.4636688,0.7079315,0.5797119,24.22069,-24.05805,-31.34409,260.9038,260.5608,10,0.0.0.0,10.139.104.221,1,0
2013-11-11 16:57:25.161,234,23.4,52.1702,4.457949,0.5476036,0,182.0802,9.870751,10,1384185410,0.5085602,0.5311127,0.5745239,22.35016,-23.40019,-32.377,263.9901,263.6471,10,0.0.0.0,10.139.104.221,1,0
2013-11-11 16:57:25.264,235,23.5,52.1702,4.457949,0.5476036,0,182.0802,9.870751,10,1384185410,0.1764069,0.5519714,0.5303345,21.41489,-23.45501,-32.31961,263.0038,262.6608,10,0.0.0.0,10.139.104.221,1,0
2013-11-11 16:57:25.370,236,23.6,52.1702,4.457949,0.5476036,0,182.0802,9.870751,10,1384185410,0.6418152,0.04632568,0.6473846,21.63495,-22.46822,-34.27069,266.9614,266.6184,10,0.0.0.0,10.139.104.221,1,0
2013-11-11 16:57:25.453,237,23.7,52.1702,4.457949,0.5476036,0,182.0802,9.870751,10,1384185410,0.5296783,0.4190826,0.8796387,21.8,-21.75553,-35.70531,270.3692,270.0262,10,0.0.0.0,10.139.104.221,1,0
2013-11-11 16:57:25.574,238,23.8,52.1702,4.457949,0.5476036,0,182.0802,9.870751,10,1384185410,0.08918762,0.1663513,0.7111206,20.20454,-22.13929,-35.41838,269.5454,269.2024,10,0.0.0.0,10.139.104.221,1,0
2013-11-11 16:57:25.681,239,23.9,52.1702,4.457949,0.5476036,0,182.0802,9.870751,10,1384185410,0.1619568,-0.005050659,0.6076508,19.10423,-20.1657,-36.56607,278.6917,278.3486,10,0.0.0.0,10.139.104.221,1,0
2013-11-11 16:57:25.770,240,24,52.1702,4.457949,0.5476036,0,182.0802,9.870751,10,1384185410,0.2441406,-0.06248474,0.5964661,18.93919,-20.11087,-36.73823,279.4432,279.1002,10,0.0.0.0,10.139.104.221,6,0
2013-11-11 16:57:25.879,241,24.1,52.1702,4.457949,0.5476036,0,182.0802,9.870751,10,1384185410,0.3919983,-0.1539917,0.5291138,15.63824,-20.76873,-37.1973,280.9246,280.5815,10,0.0.0.0,10.139.104.221,6,0
2013-11-11 16:57:26.108,242,24.2,52.1702,4.457949,0.198307,0,182.0802,9.5,5,1384185411,0.2511444,0.4476013,0.7187958,16.35345,-20.71391,-38.40238,279.6943,279.3513,10,0.0.0.0,10.139.104.221,6,0
2013-11-11 16:57:26.284,243,24.3,52.1702,4.457949,0.198307,0,182.0802,9.5,5,1384185411,0.4602814,-0.07928467,0.6207275,17.2337,-20.1657,-38.86145,278.5078,278.1648,10,0.0.0.0,10.139.104.221,6,0
2013-11-11 16:57:26.383,244,24.4,52.1702,4.457949,0.198307,0,182.0802,9.5,5,1384185411,0.3828583,0.1237793,0.5371246,18.00392,-19.28854,-38.74668,276.5854,276.2424,10,0.0.0.0,10.139.104.221,6,0
2013-11-11 16:57:26.503,245,24.5,52.1702,4.457949,0.198307,0,182.0802,9.5,5,1384185411,0.61026,0.6749268,0.7098694,16.5185,-17.36978,-40.06653,276.1637,275.8206,10,0.0.0.0,10.139.104.221,6,0
2013-11-11 16:57:26.602,246,24.6,52.1702,4.457949,0.198307,0,182.0802,9.5,5,1384185411,0.5923309,0.9870605,0.6018982,17.61881,-15.39619,-41.32899,276.5934,276.2504,10,0.0.0.0,10.139.104.221,6,0
2013-11-11 16:57:26.704,247,24.7,52.1702,4.457949,0.198307,0,182.0802,9.5,5,1384185411,0.3283539,0.6887054,0.3134613,17.83887,-14.84797,-40.41084,273.6473,273.3043,10,0.0.0.0,10.139.104.221,6,0
2013-11-11 16:57:26.808,248,24.8,52.1702,4.457949,2.170483,0,182.0802,9.5,5,1384185412,0.3232574,0.4279327,0.4299774,19.15925,-13.4226,-41.32899,276.9896,276.6466,10,0.0.0.0,10.139.104.221,6,0
2013-11-11 16:57:27.108,249,24.9,52.1702,4.457949,2.170483,0,182.0802,9.5,5,1384185412,0.7163544,0.7056122,0.4415131,20.58966,-14.51904,-39.72222,276.3398,275.9967,10,0.0.0.0,10.139.104.221,6,0
2013-11-11 16:57:27.275,250,25,52.1702,4.457949,2.170483,0,182.0802,9.5,5,1384185412,0.6032104,1.592209,0.6519623,18.88417,-17.31496,-38.86145,277.3726,277.0295,10,0.0.0.0,10.139.104.221,6,0
2013-11-11 16:57:27.391,251,25.1,52.1702,4.457949,2.170483,0,182.0802,9.5,5,1384185412,0.843338,1.31485,0.6594696,18.71912,-17.36978,-38.6893,280.4326,280.0896,10,0.0.0.0,10.139.104.221,6,0
2013-11-11 16:57:27.521,252,25.2,52.1702,4.457949,2.170483,0,182.0802,9.5,5,1384185412,0.5994415,1.026215,0.5171204,17.2337,-18.74033,-39.55007,280.6518,280.3088,10,0.0.0.0,10.139.104.221,6,0
2013-11-11 16:57:27.636,253,25.3,52.1702,4.457949,2.170483,0,182.0802,9.5,5,1384185412,0.4810333,1.029297,0.8155518,17.9489,-20.11087,-38.11546,278.9631,278.6201,10,0.0.0.0,10.139.104.221,6,0
2013-11-11 16:57:27.745,254,25.4,52.1702,4.457946,0.2972336,0.2780509,266.5536,9.5,5,1384185413,0.6718445,0.9441833,0.6840973,17.67382,-21.26214,-36.56607,273.908,273.5649,10,0.0.0.0,10.139.104.221,6,0
2013-11-11 16:57:27.844,255,25.5,52.1702,4.457946,0.2972336,0.2780509,266.5536,9.5,5,1384185413,0.5633698,0.6550751,0.2453461,18.38903,-20.98802,-37.65638,277.4394,277.0964,10,0.0.0.0,10.139.104.221,6,0
2013-11-11 16:57:28.126,256,25.6,52.1702,4.457946,0.2972336,0.2780509,266.5536,9.5,5,1384185413,0.3726959,0.5027466,0.2732391,17.01364,-21.26213,-37.48422,268.5702,268.2271,10,0.0.0.0,10.139.104.221,6,0
2013-11-11 16:57:28.323,257,25.7,52.1702,4.457946,0.2972336,0.2780509,266.5536,9.5,5,1384185413,0.4863586,0.599472,0.3035889,16.84859,-18.90479,-39.37791,271.2386,270.8955,10,0.0.0.0,10.139.104.221,6,0
2013-11-11 16:57:28.446,258,25.8,52.1702,4.457946,0.2972336,0.2780509,266.5536,9.5,5,1384185413,0.6473999,0.5537567,0.2498322,15.74828,-19.12408,-38.91884,268.6389,268.2959,10,0.0.0.0,10.139.104.221,6,0
2013-11-11 16:57:28.555,259,25.9,52.1702,4.457946,0.2972336,0.2780509,266.5536,9.5,5,1384185413,0.8563995,0.503479,0.3364563,15.4732,-18.95961,-38.74668,267.3518,267.0088,10,0.0.0.0,10.139.104.221,6,0
2013-11-11 16:57:28.638,260,26,52.1702,4.457946,0.2972336,0.2780509,266.5536,9.5,5,1384185413,1.033768,1.130264,1.312027,15.1431,-18.74032,-39.20576,267.5761,267.2331,10,0.0.0.0,10.139.104.221,6,0
2013-11-11 16:57:28.762,261,26.1,52.1702,4.457946,0.2972336,0.2780509,266.5536,9.5,5,1384185413,0.3860474,1.08783,0.9211426,17.34373,-17.4246,-39.89437,271.531,271.188,10,0.0.0.0,10.139.104.221,6,0
2013-11-11 16:57:28.866,262,26.2,52.1702,4.457946,0.2972336,0.2780509,266.5536,9.5,5,1384185413,0.181015,0.8118744,0.5335693,16.84859,-17.918,-39.49268,268.8911,268.548,10,0.0.0.0,10.139.104.221,6,0
2013-11-11 16:57:29.122,263,26.3,52.1702,4.457946,0,0,266.5536,9.5,5,1384185414,0.3607941,0.6701508,0.3895721,16.68354,-18.41139,-36.10699,263.1876,262.8446,10,0.0.0.0,10.139.104.221,6,0
2013-11-11 16:57:29.229,264,26.4,52.1702,4.457946,0,0,266.5536,9.5,5,1384185414,0.6922302,0.5974426,0.4241638,18.16897,-17.80835,-36.73823,267.6863,267.3433,10,0.0.0.0,10.139.104.221,6,0
2013-11-11 16:57:29.353,265,26.5,52.1702,4.457946,0,0,266.5536,9.5,5,1384185414,0.6922302,0.5974426,0.4241638,16.95862,-19.01443,-35.47576,261.4079,261.0649,10,0.0.0.0,10.139.104.221,6,0
2013-11-11 16:57:29.438,266,26.6,52.1702,4.457946,0,0,266.5536,9.5,5,1384185414,0.2395325,0.3772888,0.4813843,17.50878,-17.58906,-35.47576,264.5566,264.2136,10,0.0.0.0,10.139.104.221,6,0
2013-11-11 16:57:29.555,267,26.7,52.1702,4.457946,0,0,266.5536,9.5,5,1384185414,0.3200073,0.1494446,0.4268036,18.38903,-17.918,-35.24623,262.5832,262.2402,10,0.0.0.0,10.139.104.221,6,0
2013-11-11 16:57:29.698,268,26.8,52.1702,4.457946,0,0,266.5536,9.5,5,1384185414,0.4699402,0.3460236,0.9915466,19.65439,-17.75353,-35.41838,263.5477,263.2047,10,0.0.0.0,10.139.104.221,6,0
2013-11-11 16:57:29.826,269,26.9,52.1702,4.457946,0,0,266.5536,10.08614,10,1384185415,0.4009247,0.3839874,0.7146759,18.60909,-18.90479,-35.70531,261.9294,261.5864,10,0.0.0.0,10.139.104.221,6,0
2013-11-11 16:57:29.955,270,27,52.1702,4.457946,0,0,266.5536,10.08614,10,1384185415,0.2358704,0.1986389,0.4944763,16.57351,-19.28854,-34.84454,265.9223,265.5793,10,0.0.0.0,10.139.104.221,6,0
2013-11-11 16:57:30.165,271,27.1,52.1702,4.457946,0,0,266.5536,10.08614,10,1384185415,0.2350769,0.008728027,0.5660553,16.46348,-22.57786,-34.15592,271.321,270.9779,10,0.0.0.0,10.139.104.221,6,0
2013-11-11 16:57:30.252,272,27.2,52.1702,4.457946,0,0,266.5536,10.08614,10,1384185415,0.2327423,0.01147461,0.6478119,18.00392,-21.26213,-33.35254,281.3036,280.9606,10,0.0.0.0,10.139.104.221,6,0
2013-11-11 16:57:30.391,273,27.3,52.1702,4.457946,0,0,266.5536,10.08614,10,1384185415,0.1922455,-0.09306335,0.4503021,18.9942,-22.02964,-31.97531,283.396,283.0529,10,0.0.0.0,10.139.104.221,6,0
2013-11-11 16:57:30.529,274,27.4,52.1702,4.457946,0,0,266.5536,10.08614,10,1384185415,0.1625977,0.03569031,0.6873932,20.14953,-23.1809,-30.19639,278.672,278.329,10,0.0.0.0,10.139.104.221,6,0
2013-11-11 16:57:30.755,275,27.5,52.1702,4.457946,0,0,266.5536,10.08614,10,1384185415,0.4810028,0.1990356,0.7514954,23.5605,-23.1809,-28.24532,280.7782,280.4352,10,0.0.0.0,10.139.104.221,6,0
2013-11-11 16:57:30.913,276,27.6,52.1702,4.457946,0,0,266.5536,10.08614,10,1384185415,0.3409271,0.04541016,0.5303497,25.321,-22.85197,-26.75332,278.5659,278.2229,10,0.0.0.0,10.139.104.221,6,0
2013-11-11 16:57:31.182,277,27.7,52.1702,4.457946,0,0,266.5536,10.41064,10,1384185416,0.4371033,0.2562866,0.5029297,27.08151,-25.15449,-23.76932,280.6146,280.2716,10,0.0.0.0,10.139.104.221,6,0
2013-11-11 16:57:31.361,278,27.8,52.1702,4.457946,0,0,266.5536,10.41064,10,1384185416,0.4957886,0.4686279,0.5532074,26.80643,-29.70471,-16.13718,278.143,277.8,10,0.0.0.0,10.139.104.221,6,0
2013-11-11 16:57:31.455,279,27.9,52.1702,4.457946,0,0,266.5536,10.41064,10,1384185416,0.5236359,0.6244965,0.561676,25.48605,-31.78794,-15.56333,273.5558,273.2127,10,0.0.0.0,10.139.104.221,6,0
2013-11-11 16:57:31.586,280,28,52.1702,4.457946,0,0,266.5536,10.41064,10,1384185416,0.7228851,1.064377,0.576889,24.82586,-32.66509,-17.85872,274.8246,274.4816,10,0.0.0.0,10.139.104.221,6,0
2013-11-11 16:57:31.716,281,28.1,52.1702,4.457946,0,0,266.5536,10.41064,10,1384185416,0.7228851,1.064377,0.576889,26.58637,-29.15649,-21.30179,279.7768,279.4338,10,0.0.0.0,10.139.104.221,6,0
2013-11-11 16:57:31.835,282,28.2,52.1702,4.457946,0,0,266.5536,10.41064,10,1384185416,0.7749634,0.9694061,0.6737213,28.23684,-26.19611,-21.6461,280.4946,280.1516,10,0.0.0.0,10.139.104.221,6,0
2013-11-11 16:57:32.104,283,28.3,52.1702,4.457946,0,0,266.5536,10.41064,10,1384185416,0.7366333,1.114517,0.8581848,32.08794,-21.37178,-22.56424,292.5323,292.1893,10,0.0.0.0,10.139.104.221,6,0
2013-11-11 16:57:32.224,284,28.4,52.1702,4.457946,0,0,266.5536,10.41064,10,1384185416,0.6496735,1.001282,0.4648132,34.17853,-21.04285,-22.44948,298.0706,297.7276,10,0.0.0.0,10.139.104.221,6,0
2013-11-11 16:57:32.360,285,28.5,52.1702,4.457946,0.02218628,0,266.5536,10.63314,10,1384185417,0.6496735,1.001282,0.4648132,33.84843,-19.61748,-23.71193,299.92,299.577,10,0.0.0.0,10.139.104.221,6,0
2013-11-11 16:57:32.477,286,28.6,52.1702,4.457946,0.02218628,0,266.5536,10.63314,10,1384185417,0.6737213,0.8265533,0.648407,33.35329,-17.36978,-26.409,301.4128,301.0698,10,0.0.0.0,10.139.104.221,6,0
2013-11-11 16:57:32.582,287,28.7,52.1702,4.457946,0.02218628,0,266.5536,10.63314,10,1384185417,0.4651031,0.664917,0.6888885,31.04264,-13.09367,-31.11454,307.3846,307.0416,10,0.0.0.0,10.139.104.221,6,0
2013-11-11 16:57:32.684,288,28.8,52.1702,4.457946,0.02218628,0,266.5536,10.63314,10,1384185417,0.4732666,0.676651,0.9225616,31.64781,-13.36778,-30.59808,304.1493,303.8063,10,0.0.0.0,10.139.104.221,6,0
2013-11-11 16:57:32.820,289,28.9,52.1702,4.457946,0.02218628,0,266.5536,10.63314,10,1384185417,0.6315002,0.9102478,0.7336731,33.57336,-15.72512,-27.32716,300.8749,300.5319,10,0.0.0.0,10.139.104.221,6,0
2013-11-11 16:57:33.153,290,29,52.1702,4.457946,0.02218628,0,266.5536,10.63314,10,1384185417,0.7290039,0.6543884,0.4232025,35.38888,-22.02964,-18.20302,291.5949,291.2519,10,0.0.0.0,10.139.104.221,1,0
2013-11-11 16:57:33.299,291,29.1,52.1702,4.457946,0.02218628,0,266.5536,10.63314,10,1384185417,0.9282379,0.6720123,0.4365845,35.49891,-23.89359,-15.33379,285.5918,285.2487,10,0.0.0.0,10.139.104.221,1,0
2013-11-11 16:57:33.433,292,29.2,52.1702,4.457946,0.02218628,0,266.5536,10.63314,10,1384185417,1.127701,0.7480316,0.5257568,34.56364,-24.71592,-14.35825,281.3942,281.0512,10,0.0.0.0,10.139.104.221,1,0
2013-11-11 16:57:33.552,293,29.3,52.1702,4.457946,0.2535858,0,266.5536,10.73871,10,1384185418,0.8392792,0.7876587,0.602417,35.49891,-24.4418,-14.98949,281.985,281.642,10,0.0.0.0,10.139.104.221,1,0
2013-11-11 16:57:33.665,294,29.4,52.1702,4.457946,0.2535858,0,266.5536,10.73871,10,1384185418,0.2315063,0.6641388,0.4095306,35.55392,-25.48342,-12.86626,280.4467,280.1036,10,0.0.0.0,10.139.104.221,1,0
2013-11-11 16:57:33.782,295,29.5,52.1702,4.457946,0.2535858,0,266.5536,10.73871,10,1384185418,0.2807465,0.5551453,0.5706482,34.67367,-25.81235,-12.40718,280.157,279.814,10,0.0.0.0,10.139.104.221,1,0
2013-11-11 16:57:33.908,296,29.6,52.1702,4.457946,0.2535858,0,266.5536,10.73871,10,1384185418,0.8139038,0.7454987,0.7484741,35.66396,-27.34736,-11.48903,279.2498,278.9068,10,0.0.0.0,10.139.104.221,1,0
2013-11-11 16:57:34.158,297,29.7,52.1702,4.457946,0.2535858,0,266.5536,10.73871,10,1384185418,0.6392059,0.7567139,0.6299286,33.90345,-28.55345,-8.505028,274.251,273.908,10,0.0.0.0,10.139.104.221,1,0
2013-11-11 16:57:34.276,298,29.8,52.1702,4.457946,0.2535858,0,266.5536,10.73871,10,1384185418,0.1206207,0.5823059,0.5202942,30.71254,-32.1717,-5.750572,267.3691,267.0261,10,0.0.0.0,10.139.104.221,1,0
2013-11-11 16:57:34.425,299,29.9,52.1702,4.457946,0.2535858,0,266.5536,10.73871,10,1384185418,0.4096832,0.201355,0.5282593,25.37602,-36.72192,-2.020576,260.1616,259.8185,10,0.0.0.0,10.139.104.221,1,0
2013-11-11 16:57:34.535,300,30,52.1702,4.457946,0.2535858,0,266.5536,10.73871,10,1384185418,0.3209534,0.2492981,0.7750854,19.48934,-41.60106,3.430954,254.4371,254.0941,10,0.0.0.0,10.139.104.221,1,0
2013-11-11 16:57:34.676,301,30.1,52.1702,4.457946,0.2535858,0,266.5536,10.73871,10,1384185418,0.3209534,0.2492981,0.7750854,15.41818,-43.57465,7.562645,249.4761,249.133,10,0.0.0.0,10.139.104.221,1,0
2013-11-11 16:57:34.784,302,30.2,52.1702,4.457946,0,0,266.5536,9.5,5,1384185419,0.03993225,-0.2112579,0.4470673,16.24342,-42.64268,7.275719,250.6266,250.2835,10,0.0.0.0,10.139.104.221,1,0
2013-11-11 16:57:34.962,303,30.3,52.1702,4.457946,0,0,266.5536,9.5,5,1384185419,0.1568451,-0.09384155,0.5027313,14.97805,-42.6975,13.87494,242.0035,241.6605,10,0.0.0.0,10.139.104.221,1,0
2013-11-11 16:57:35.722,304,30.4,52.1702,4.457946,0,0,266.5536,9.5,5,1384185419,0.2239685,-0.07102966,0.4727478,7.550938,-41.98482,22.31047,231.784,231.4409,10,0.0.0.0,10.139.104.221,1,0
2013-11-11 16:57:35.912,305,30.5,52.1702,4.457946,0,0,266.5536,9.5,5,1384185419,0.164444,-0.0818634,0.4394379,8.101093,-41.10767,23.80246,231.9066,231.5636,10,0.0.0.0,10.139.104.221,1,0
2013-11-11 16:57:36.187,306,30.6,52.1702,4.457946,0,0,266.5536,9.5,5,1384185419,0.44841,0.2477722,0.7765503,8.926331,-39.1889,25.46662,232.0659,231.7229,10,0.0.0.0,10.139.104.221,1,0
2013-11-11 16:57:36.287,307,30.7,52.1702,4.457946,1.823238,0,266.5536,9.5,5,1384185420,0.4267273,0.2039795,0.53125,9.641537,-38.91479,26.44215,233.53,233.187,10,0.0.0.0,10.139.104.221,1,0
2013-11-11 16:57:36.421,308,30.8,52.1702,4.457946,1.823238,0,266.5536,9.5,5,1384185420,0.3358917,0.04693604,0.582901,10.46677,-35.02243,30.51645,240.8609,240.5179,10,0.0.0.0,10.139.104.221,1,0
2013-11-11 16:57:36.588,309,30.9,52.1702,4.457946,1.823238,0,266.5536,9.5,5,1384185420,0.3118286,0.21521,0.4402313,12.6674,-32.39098,32.81184,252.7828,252.4398,10,0.0.0.0,10.139.104.221,1,0
2013-11-11 16:57:36.686,310,31,52.1702,4.457946,1.823238,0,266.5536,9.5,5,1384185420,0.3509064,0.3627625,0.5256653,15.30815,-30.08846,33.95953,106.7589,106.4159,10,0.0.0.0,10.139.104.221,1,0
2013-11-11 16:57:36.797,311,31.1,52.1702,4.457946,1.823238,0,266.5536,9.5,5,1384185420,0.4515839,0.5311737,0.3493958,15.91332,-29.48542,34.70553,79.17715,78.83413,10,0.0.0.0,10.139.104.221,1,0
2013-11-11 16:57:36.945,312,31.2,52.1702,4.457946,1.823238,0,266.5536,9.5,5,1384185420,0.5574646,0.960968,0.4499512,15.4732,-29.70471,34.47599,81.2278,80.88477,10,0.0.0.0,10.139.104.221,1,0
2013-11-11 16:57:37.182,313,31.3,52.1702,4.457946,1.823238,0,266.5536,9.5,5,1384185420,0.4797821,1.112213,0.469696,16.35345,-32.22652,31.49199,266.7455,266.4025,10,0.0.0.0,10.139.104.221,1,0
2013-11-11 16:57:37.309,314,31.4,52.1702,4.457946,1.823238,0,266.5536,9.5,5,1384185420,0.8640747,1.154907,1.070831,18.66411,-33.76153,28.8523,278.9292,278.5862,10,0.0.0.0,10.139.104.221,1,0
2013-11-11 16:57:37.440,315,31.5,52.1702,4.457946,1.823238,0,266.5536,9.5,5,1384185420,1.019669,1.184647,0.5884552,19.76442,-32.77473,27.36031,282.1755,281.8325,10,0.0.0.0,10.139.104.221,6,0
2013-11-11 16:57:37.566,316,31.6,52.1702,4.457946,1.823238,0,266.5536,9.5,5,1384185420,0.6750488,1.175095,0.7214813,21.0848,-33.65189,25.98307,288.1009,287.7579,10,0.0.0.0,10.139.104.221,6,0
2013-11-11 16:57:37.691,317,31.7,52.1702,4.457946,1.823238,0,266.5536,9.5,5,1384185420,0.6121216,0.9898529,0.4150391,19.92947,-34.03564,26.27,293.416,293.0729,10,0.0.0.0,10.139.104.221,6,0
2013-11-11 16:57:37.876,318,31.8,52.1702,4.457946,0.6817207,0,266.5536,9.5,5,1384185421,0.6121216,0.9898529,0.4150391,14.20784,-30.74632,34.30383,95.96488,95.62186,10,0.0.0.0,10.139.104.221,6,0
2013-11-11 16:57:38.237,319,31.9,52.1702,4.457946,0.6817207,0,266.5536,9.5,5,1384185421,0.4790039,0.6252594,0.5469055,4.415047,-31.40419,38.20598,102.5477,102.2046,10,0.0.0.0,10.139.104.221,6,0
2013-11-11 16:57:38.453,320,32,52.1702,4.457946,0.6817207,0,266.5536,9.5,5,1384185421,0.5584106,0.7721863,0.7600555,-0.4813538,-31.56866,39.41106,107.0373,106.6943,10,0.0.0.0,10.139.104.221,6,0
2013-11-11 16:57:38.647,321,32.1,52.1702,4.457946,0.6817207,0,266.5536,9.5,5,1384185421,0.9093781,0.9754486,0.9925995,-4.277435,-30.63668,40.50136,112.3294,111.9864,10,0.0.0.0,10.139.104.221,6,0
2013-11-11 16:57:38.887,322,32.2,52.1702,4.457946,0.6817207,0,266.5536,9.5,5,1384185421,0.8004456,0.8965149,0.4491272,-4.277435,-28.6631,42.10813,107.7643,107.4213,10,0.0.0.0,10.139.104.221,6,0
2013-11-11 16:57:39.216,323,32.3,52.1702,4.457946,0.6817207,0,266.5536,9.5,5,1384185421,0.4784851,0.638504,0.1720276,-6.147968,-29.32095,40.15706,111.9683,111.6253,10,0.0.0.0,10.139.104.221,6,0
2013-11-11 16:57:39.437,324,32.4,52.1702,4.457946,0.6817207,0,266.5536,9.5,5,1384185421,0.4623108,0.5836945,0.2324829,-4.827595,-27.34736,42.10813,106.9893,106.6462,10,0.0.0.0,10.139.104.221,6,0
2013-11-11 16:57:39.605,325,32.5,52.17018,4.457915,0.3004837,0.1152547,250.8604,10.8243,10,1384185422,1.020782,0.567688,0.8850708,-1.361603,-25.86717,44.00182,102.8213,102.4783,10,0.0.0.0,10.139.104.221,6,0
2013-11-11 16:57:39.770,326,32.6,52.17018,4.457915,0.3004837,0.1152547,250.8604,10.8243,10,1384185422,1.298782,0.8448486,0.6965485,-0.4263382,-24.71591,43.94444,103.3684,103.0254,10,0.0.0.0,10.139.104.221,6,0
2013-11-11 16:57:39.921,327,32.7,52.17018,4.457915,0.3004837,0.1152547,250.8604,10.8243,10,1384185422,0.7705078,1.039017,0.4710236,4.249996,-19.06925,46.98582,98.31152,97.96849,10,0.0.0.0,10.139.104.221,6,0
2013-11-11 16:57:40.260,328,32.8,52.17018,4.457915,0.3004837,0.1152547,250.8604,10.8243,10,1384185422,0.6395111,0.8905182,0.9479523,10.74185,-13.03885,46.75628,93.37057,93.02754,10,0.0.0.0,10.139.104.221,6,0
2013-11-11 16:57:40.632,329,32.9,52.17018,4.457915,0.3004837,0.1152547,250.8604,10.8243,10,1384185422,0.4200439,0.4806213,0.6346741,15.69326,-8.982028,47.67443,92.48635,92.14333,10,0.0.0.0,10.139.104.221,6,0
2013-11-11 16:57:40.854,330,33,52.17018,4.457915,0.3004837,0.1152547,250.8604,10.8243,10,1384185422,0.6186523,0.5527191,0.7238617,20.14953,-4.102874,47.96136,92.4573,92.11427,10,0.0.0.0,10.139.104.221,6,0
2013-11-11 16:57:41.385,331,33.1,52.17017,4.457886,0,0.279345,255.1487,10.71963,10,1384185423,0.362381,0.6829376,0.1821747,7.771,-16.54745,46.98582,109.9581,109.6151,10,0.0.0.0,10.139.104.221,6,0
2013-11-11 16:57:41.551,332,33.2,52.17017,4.457886,0,0.279345,255.1487,10.71963,10,1384185423,0.5105133,0.2059174,0.4974823,4.139969,-19.83677,45.72336,107.6619,107.3189,10,0.0.0.0,10.139.104.221,6,0
2013-11-11 16:57:41.708,333,33.3,52.17017,4.457886,0,0.279345,255.1487,10.71963,10,1384185423,0.5516357,0.2447968,0.6737671,1.00407,-23.83876,44.28874,105.4458,105.1028,10,0.0.0.0,10.139.104.221,6,0
2013-11-11 16:57:41.833,334,33.4,52.17017,4.457886,0,0.279345,255.1487,10.71963,10,1384185423,0.4315491,-0.1174927,0.4366913,-1.196556,-30.19811,40.27182,103.6003,103.2573,10,0.0.0.0,10.139.104.221,6,0
2013-11-11 16:57:41.970,335,33.5,52.17017,4.457886,0,0.279345,255.1487,10.71963,10,1384185423,0.4315491,-0.1174927,0.4366913,-2.296871,-31.73312,40.04229,103.8318,103.4888,10,0.0.0.0,10.139.104.221,6,0
2013-11-11 16:57:42.192,336,33.6,52.17017,4.457886,0,0.279345,255.1487,10.71963,10,1384185423,0.02893066,0.4774323,0.5007477,-5.267719,-30.19811,40.04229,107.7568,107.4138,10,0.0.0.0,10.139.104.221,6,0
2013-11-11 16:57:42.313,337,33.7,52.17017,4.457886,0,0.279345,255.1487,10.71963,10,1384185423,0.1109467,-0.1129761,0.230957,-2.461914,-26.41539,43.08367,109.2839,108.9409,10,0.0.0.0,10.139.104.221,6,0
2013-11-11 16:57:42.448,338,33.8,52.17017,4.457841,1.377544,0.4665573,259.1525,10.65704,10,1384185424,0.05606079,-0.1601868,0.6174011,-0.4813538,-25.09967,44.4609,111.426,111.083,10,0.0.0.0,10.139.104.221,6,0
2013-11-11 16:57:42.577,339,33.9,52.17017,4.457841,1.377544,0.4665573,259.1525,10.65704,10,1384185424,0.1503143,0.02929688,0.491684,3.2047,-20.22052,46.23982,108.7133,108.3702,10,0.0.0.0,10.139.104.221,6,0
2013-11-11 16:57:42.686,340,34,52.17017,4.457841,1.377544,0.4665573,259.1525,10.65704,10,1384185424,0.2419281,0.0969696,0.5045166,8.376171,-14.62868,46.6989,106.3087,105.9657,10,0.0.0.0,10.139.104.221,6,0
2013-11-11 16:57:42.819,341,34.1,52.17017,4.457841,1.377544,0.4665573,259.1525,10.65704,10,1384185424,0.4591522,0.1452789,0.5977325,15.03307,-4.157699,48.70735,105.0956,104.7526,10,0.0.0.0,10.139.104.221,6,0
2013-11-11 16:57:42.936,342,34.2,52.17017,4.457841,1.377544,0.4665573,259.1525,10.65704,10,1384185424,0.4273834,0.3755035,0.3721161,11.56709,-5.308955,48.87951,103.2661,102.9231,10,0.0.0.0,10.139.104.221,6,0
2013-11-11 16:57:43.177,343,34.3,52.17017,4.457841,1.377544,0.4665573,259.1525,10.65704,10,1384185424,0.5207977,0.6356812,0.7115784,4.745136,-15.61548,46.58413,102.4647,102.1217,10,0.0.0.0,10.139.104.221,6,0
2013-11-11 16:57:43.303,344,34.4,52.17017,4.457841,1.377544,0.4665573,259.1525,10.65704,10,1384185424,0.5447998,0.9028931,0.5931854,1.389183,-23.45501,44.00182,100.7692,100.4262,10,0.0.0.0,10.139.104.221,6,0
2013-11-11 16:57:43.416,345,34.5,52.17017,4.457841,1.377544,0.4665573,259.1525,10.65704,10,1384185424,0.7982025,0.8271027,0.6585999,0.8390274,-27.84076,41.24736,94.9637,94.62067,10,0.0.0.0,10.139.104.221,6,0
2013-11-11 16:57:43.562,346,34.6,52.17017,4.457841,1.377544,0.4665573,259.1525,10.65704,10,1384185424,0.7156982,0.9468842,0.646286,1.279152,-29.81435,39.29629,91.73047,91.38744,10,0.0.0.0,10.139.104.221,6,0
2013-11-11 16:57:43.686,347,34.7,52.17017,4.457841,1.377544,0.4665573,259.1525,10.65704,10,1384185424,0.6108093,1.369736,0.7051392,1.55423,-30.30775,38.77983,96.36671,96.02368,10,0.0.0.0,10.139.104.221,6,0
2013-11-11 16:57:43.794,348,34.8,52.17017,4.457841,0.7855034,0,257.3742,10.71035,10,1384185425,0.7872009,1.204865,0.5855408,0.01379013,-27.89558,40.84567,100.1579,99.81485,10,0.0.0.0,10.139.104.221,6,0
2013-11-11 16:57:43.909,349,34.9,52.17017,4.457841,0.7855034,0,257.3742,10.71035,10,1384185425,0.5232544,0.7504425,0.4377136,-0.6464005,-25.70271,42.45244,100.9061,100.5631,10,0.0.0.0,10.139.104.221,6,0
2013-11-11 16:57:44.164,350,35,52.17017,4.457841,0.7855034,0,257.3742,10.71035,10,1384185425,0.5232544,0.7504425,0.4377136,1.49921,-22.35857,43.08367,106.4641,106.1211,10,0.0.0.0,10.139.104.221,6,0
2013-11-11 16:57:44.251,351,35.1,52.17017,4.457841,0.7855034,0,257.3742,10.71035,10,1384185425,0.9732361,1.149643,0.7246704,9.31144,-16.76674,45.37905,106.293,105.95,10,0.0.0.0,10.139.104.221,6,0
2013-11-11 16:57:44.393,352,35.2,52.17017,4.457841,0.7855034,0,257.3742,10.71035,10,1384185425,0.6123657,0.9612732,0.7140045,16.5185,-7.830763,45.2069,106.7637,106.4207,10,0.0.0.0,10.139.104.221,6,0
2013-11-11 16:57:44.529,353,35.3,52.17017,4.457841,0.7855034,0,257.3742,10.71035,10,1384185425,0.2566223,0.712326,0.499054,15.74828,-2.787148,45.66597,102.6284,102.2854,10,0.0.0.0,10.139.104.221,6,0
2013-11-11 16:57:44.659,354,35.4,52.17017,4.457841,0.7855034,0,257.3742,10.71035,10,1384185425,0.2848969,0.6627502,0.5927734,11.84216,-8.433805,46.75628,103.4562,103.1132,10,0.0.0.0,10.139.104.221,6,0
2013-11-11 16:57:44.777,355,35.5,52.17017,4.457841,0.7855034,0,257.3742,10.71035,10,1384185425,0.5167847,0.8257751,0.6516876,4.470058,-19.06926,45.37905,103.2461,102.9031,10,0.0.0.0,10.139.104.221,1,0
2013-11-11 16:57:45.104,356,35.6,52.17017,4.457841,0.7855034,0,257.3742,10.71035,10,1384185425,0.5446014,0.6559143,0.1868591,2.049366,-27.1829,40.67352,92.6393,92.29627,10,0.0.0.0,10.139.104.221,1,0
2013-11-11 16:57:45.350,357,35.7,52.17017,4.457841,0.7855034,0,257.3742,10.71035,10,1384185425,0.5877686,0.6150665,0.3059082,2.874603,-27.34736,39.69798,96.75887,96.41584,10,0.0.0.0,10.139.104.221,1,0
2013-11-11 16:57:45.599,358,35.8,52.17017,4.457731,0,0.8970954,276.8511,10.81974,10,1384185426,0.9358826,0.6334229,0.6187744,4.470058,-26.08646,41.82121,96.6543,96.31128,10,0.0.0.0,10.139.104.221,1,0
2013-11-11 16:57:45.712,359,35.9,52.17017,4.457731,0,0.8970954,276.8511,10.81974,10,1384185426,1.250793,0.7886658,0.8629913,5.845451,-23.94841,43.02629,100.8034,100.4604,10,0.0.0.0,10.139.104.221,1,0
2013-11-11 16:57:45.832,360,36,52.17017,4.457731,0,0.8970954,276.8511,10.81974,10,1384185426,0.3708191,0.8080597,0.6394653,8.706268,-21.31696,43.94444,104.6935,104.3505,10,0.0.0.0,10.139.104.221,1,0
2013-11-11 16:57:45.971,361,36.1,52.17017,4.457731,0,0.8970954,276.8511,10.81974,10,1384185426,0.4067383,0.5845795,0.5369873,18.71912,-10.35258,46.01028,103.8585,103.5154,10,0.0.0.0,10.139.104.221,6,0
2013-11-11 16:57:46.208,362,36.2,52.17017,4.457731,0,0.8970954,276.8511,10.81974,10,1384185426,0.605896,0.4539032,0.4641266,17.89389,-9.091668,47.33012,109.4567,109.1136,10,0.0.0.0,10.139.104.221,6,0
2013-11-11 16:57:46.327,363,36.3,52.17017,4.457731,0,0.8970954,276.8511,10.81974,10,1384185426,0.5550385,0.2997894,0.492569,11.34702,-15.83476,46.35459,105.848,105.505,10,0.0.0.0,10.139.104.221,6,0
2013-11-11 16:57:46.453,364,36.4,52.17017,4.457731,0,0.8970954,276.8511,10.81974,10,1384185426,0.4824371,0.1074677,0.6806793,10.52179,-27.07326,40.90306,98.46145,98.11842,10,0.0.0.0,10.139.104.221,6,0
2013-11-11 16:57:46.587,365,36.5,52.17017,4.457731,0,0.8970954,276.8511,10.81974,10,1384185426,0.388916,0.1994934,0.7102509,8.651249,-28.38898,41.93598,101.9707,101.6277,10,0.0.0.0,10.139.104.221,6,0
2013-11-11 16:57:46.697,366,36.6,52.17017,4.457731,0,0.8970954,276.8511,10.81974,10,1384185426,0.0388031,0.1336823,0.4451904,6.285576,-27.78594,41.99336,109.2132,108.8702,10,0.0.0.0,10.139.104.221,6,0
2013-11-11 16:57:46.810,367,36.7,52.17018,4.457669,0.1191673,1.170056,288.1262,11.01747,10,1384185427,0.1563263,0.0556488,0.501358,7.440907,-25.4286,41.36213,113.9457,113.6027,10,0.0.0.0,10.139.104.221,6,0
2013-11-11 16:57:46.935,368,36.8,52.17018,4.457669,0.1191673,1.170056,288.1262,11.01747,10,1384185427,0.280899,0.001907349,0.5603943,12.88746,-17.26014,43.48536,116.6421,116.299,10,0.0.0.0,10.139.104.221,6,0
2013-11-11 16:57:47.159,369,36.9,52.17018,4.457669,0.1191673,1.170056,288.1262,11.01747,10,1384185427,0.2044067,0.01914978,0.569809,17.17868,-7.830766,46.35459,116.3884,116.0453,10,0.0.0.0,10.139.104.221,6,0
2013-11-11 16:57:47.278,370,37,52.17018,4.457669,0.1191673,1.170056,288.1262,11.01747,10,1384185427,0.2600708,0.01803589,0.4600067,8.596237,-11.6683,47.61705,114.6353,114.2923,10,0.0.0.0,10.139.104.221,6,0
2013-11-11 16:57:47.387,371,37.1,52.17018,4.457669,0.1191673,1.170056,288.1262,11.01747,10,1384185427,0.3079224,0.1631927,0.5162659,1.224133,-23.83876,41.99336,117.3981,117.055,10,0.0.0.0,10.139.104.221,6,0
2013-11-11 16:57:47.534,372,37.2,52.17018,4.457669,0.1191673,1.170056,288.1262,11.01747,10,1384185427,0.4239197,0.2973633,0.4784088,1.719276,-31.34937,39.29629,110.689,110.346,10,0.0.0.0,10.139.104.221,6,0
2013-11-11 16:57:47.671,373,37.3,52.17018,4.457669,0.1191673,1.170056,288.1262,11.01747,10,1384185427,0.5550385,0.7210388,0.4992523,2.324448,-27.56665,42.45244,112.8494,112.5064,10,0.0.0.0,10.139.104.221,6,0
2013-11-11 16:57:47.794,374,37.4,52.17018,4.457669,0.1191673,1.170056,288.1262,11.01747,10,1384185427,0.7713165,0.834671,0.6799011,7.220844,-17.53424,46.06767,112.9044,112.5614,10,0.0.0.0,10.139.104.221,6,0
2013-11-11 16:57:47.907,375,37.5,52.17019,4.457586,1.645599,1.574539,292.2539,11.08697,10,1384185428,0.8600159,1.548828,0.8516998,14.70298,-8.104878,48.47781,117.3144,116.9714,10,0.0.0.0,10.139.104.221,6,0
2013-11-11 16:57:48.143,376,37.6,52.17019,4.457586,1.645599,1.574539,292.2539,11.08697,10,1384185428,0.5187836,0.9956055,0.6298065,-0.04122925,-18.41139,47.21535,115.3417,114.9986,10,0.0.0.0,10.139.104.221,6,0
2013-11-11 16:57:48.260,377,37.7,52.17019,4.457586,1.645599,1.574539,292.2539,11.08697,10,1384185428,0.4205322,0.8869934,0.3989868,-1.6917,-28.16969,40.78828,110.4697,110.1267,10,0.0.0.0,10.139.104.221,6,0
2013-11-11 16:57:48.388,378,37.8,52.17019,4.457586,1.645599,1.574539,292.2539,11.08697,10,1384185428,0.8245697,0.8215485,0.5331421,-2.241856,-30.80115,39.64059,111.0738,110.7307,10,0.0.0.0,10.139.104.221,6,0
2013-11-11 16:57:48.512,379,37.9,52.17019,4.457586,1.645599,1.574539,292.2539,11.08697,10,1384185428,0.6895142,0.7737579,0.5707092,0.1788368,-28.27934,41.24736,108.2248,107.8817,10,0.0.0.0,10.139.104.221,1,0
2013-11-11 16:57:48.640,380,38,52.17019,4.457586,1.645599,1.574539,292.2539,11.08697,10,1384185428,0.4641571,0.6882782,0.5651703,4.360027,-21.59106,47.67443,109.1682,108.8252,10,0.0.0.0,10.139.104.221,1,0
2013-11-11 16:57:48.760,381,38.1,52.17019,4.457586,1.645599,1.574539,292.2539,11.08697,10,1384185428,0.7469177,0.7616272,0.7627716,7.881035,-12.9292,52.15043,110.098,109.7549,10,0.0.0.0,10.139.104.221,1,0
2013-11-11 16:57:48.872,382,38.2,52.17019,4.457586,1.645599,1.574539,292.2539,11.08697,10,1384185428,0.6251068,0.759552,0.3718719,10.90689,-4.870382,52.43735,111.8002,111.4572,10,0.0.0.0,10.139.104.221,1,0
2013-11-11 16:57:48.970,383,38.3,52.17019,4.457586,1.645599,1.574539,292.2539,11.08697,10,1384185428,0.5472412,0.734726,0.2616272,6.615673,-10.79115,49.45335,109.3815,109.0385,10,0.0.0.0,10.139.104.221,1,0
2013-11-11 16:57:49.201,384,38.4,52.17019,4.457586,1.645599,1.574539,292.2539,11.08697,10,1384185428,0.8705292,0.7901611,0.6220093,1.279152,-23.12608,45.72336,108.1159,107.7729,10,0.0.0.0,10.139.104.221,1,0
2013-11-11 16:57:49.344,385,38.5,52.17021,4.457497,0,2.018321,289.265,11.2103,10,1384185429,1.063858,0.8895416,0.6925964,-0.04122925,-29.04685,41.59167,105.8463,105.5033,10,0.0.0.0,10.139.104.221,1,0
2013-11-11 16:57:49.472,386,38.6,52.17021,4.457497,0,2.018321,289.265,11.2103,10,1384185429,0.744278,1.025604,0.6617584,0.2338524,-28.33416,41.64906,106.387,106.0439,10,0.0.0.0,10.139.104.221,1,0
2013-11-11 16:57:49.594,387,38.7,52.17021,4.457497,0,2.018321,289.265,11.2103,10,1384185429,0.5037231,0.7527008,0.7520905,2.54451,-23.07125,45.2069,105.514,105.1709,10,0.0.0.0,10.139.104.221,1,0
2013-11-11 16:57:49.710,388,38.8,52.17021,4.457497,0,2.018321,289.265,11.2103,10,1384185429,0.5213623,0.6402283,0.5664978,8.926331,-11.6683,49.68289,107.0985,106.7555,10,0.0.0.0,10.139.104.221,1,0
2013-11-11 16:57:49.914,389,38.9,52.17021,4.457497,0,2.018321,289.265,11.2103,10,1384185429,0.4783783,0.6134644,0.3210602,11.07194,-4.925206,50.31412,109.1591,108.816,10,0.0.0.0,10.139.104.221,1,0
2013-11-11 16:57:50.283,390,39,52.17021,4.457497,0,2.018321,289.265,11.2103,10,1384185429,0.2566833,0.2993469,0.4368744,0.7289925,-20.60427,47.67443,107.5725,107.2295,10,0.0.0.0,10.139.104.221,1,0
2013-11-11 16:57:50.561,391,39.1,52.17021,4.457497,0,2.018321,289.265,11.2103,10,1384185429,0.5309753,-0.1662903,0.7721252,-1.031509,-29.37578,41.70644,106.744,106.401,10,0.0.0.0,10.139.104.221,1,0
2013-11-11 16:57:50.756,392,39.2,52.17021,4.457497,0,2.018321,289.265,11.2103,10,1384185429,0.2193451,0.130661,0.2872314,0.3988953,-26.08646,42.9689,105.0972,104.7542,10,0.0.0.0,10.139.104.221,1,0
2013-11-11 16:57:50.902,393,39.3,52.17021,4.457497,0,2.018321,289.265,11.2103,10,1384185429,0.01841736,0.20784,0.3855438,6.7257,-14.51904,48.99428,104.5628,104.2198,10,0.0.0.0,10.139.104.221,1,0
2013-11-11 16:57:51.138,394,39.4,52.17023,4.457411,0,2.397901,290.7597,11.20405,10,1384185430,0.6386414,-0.2062225,0.9186859,11.40203,-5.254134,52.6095,105.5066,105.1636,10,0.0.0.0,10.139.104.221,1,0
2013-11-11 16:57:51.298,395,39.5,52.17023,4.457411,0,2.397901,290.7597,11.20405,10,1384185430,0.3245544,-0.08467102,0.5909882,9.091377,-5.802356,54.33104,105.6189,105.2759,10,0.0.0.0,10.139.104.221,1,0
2013-11-11 16:57:51.414,396,39.6,52.17023,4.457411,0,2.397901,290.7597,11.20405,10,1384185430,0.3399963,0.134964,0.7082977,1.939339,-18.63068,47.90397,105.837,105.494,10,0.0.0.0,10.139.104.221,1,0
2013-11-11 16:57:51.588,397,39.7,52.17023,4.457411,0,2.397901,290.7597,11.20405,10,1384185430,0.2830811,0.1208954,0.5377197,-1.361603,-29.26613,41.93598,105.6704,105.3273,10,0.0.0.0,10.139.104.221,1,0
2013-11-11 16:57:51.709,398,39.8,52.17023,4.457411,0,2.397901,290.7597,11.20405,10,1384185430,0.2285461,0.07403564,0.4237061,-1.581665,-26.08646,43.54275,105.1955,104.8524,10,0.0.0.0,10.139.104.221,1,0
2013-11-11 16:57:51.836,399,39.9,52.17023,4.457411,0,2.397901,290.7597,11.20405,10,1384185430,0.217041,0.334198,0.2019806,6.285576,-13.53225,49.10905,103.312,102.969,10,0.0.0.0,10.139.104.221,1,0
2013-11-11 16:57:51.960,400,40,52.17023,4.457411,0,2.397901,290.7597,11.20405,10,1384185430,0.3481903,0.6437225,0.5726318,10.74185,-4.157699,52.72427,107.0203,106.6773,10,0.0.0.0,10.139.104.221,1,0
2013-11-11 16:57:52.191,401,40.1,52.17023,4.457411,0,2.397901,290.7597,11.20405,10,1384185430,1.093735,0.8612823,0.3296509,9.586517,-5.199316,51.74873,104.7255,104.3825,10,0.0.0.0,10.139.104.221,1,0
2013-11-11 16:57:52.312,402,40.2,52.17023,4.457411,0,2.397901,290.7597,11.20405,10,1384185430,0.9108582,1.175308,0.7224121,-0.8664627,-22.52304,45.78074,103.7332,103.3902,10,0.0.0.0,10.139.104.221,1,0
2013-11-11 16:57:52.450,403,40.3,52.17024,4.45731,0,2.810708,280.1817,11.20281,10,1384185431,0.4463043,1.120667,0.6837311,-2.186836,-28.99203,42.10813,103.4098,103.0668,10,0.0.0.0,10.139.104.221,1,0
2013-11-11 16:57:52.592,404,40.4,52.17024,4.45731,0,2.810708,280.1817,11.20281,10,1384185431,0.556366,0.8603363,0.5611877,6.450623,-12.49063,50.65843,99.92607,99.58305,10,0.0.0.0,10.139.104.221,1,0
2013-11-11 16:57:52.700,405,40.5,52.17024,4.45731,0,2.810708,280.1817,11.20281,10,1384185431,1.04187,1.062088,0.7037354,12.22727,-3.225727,53.58504,103.6781,103.3351,10,0.0.0.0,10.139.104.221,1,0
2013-11-11 16:57:52.931,406,40.6,52.17024,4.45731,0,2.810708,280.1817,11.20281,10,1384185431,0.8944702,1.017273,0.7178802,9.586517,-3.883592,52.43735,101.17,100.8269,10,0.0.0.0,10.139.104.221,1,0
2013-11-11 16:57:53.288,407,40.7,52.17024,4.45731,0,2.810708,280.1817,11.20281,10,1384185431,0.4795685,0.6315765,0.5975189,-2.02179,-26.41539,44.69044,101.2314,100.8884,10,0.0.0.0,10.139.104.221,1,0
2013-11-11 16:57:53.538,408,40.8,52.17024,4.45731,0,2.810708,280.1817,11.20281,10,1384185431,0.7715302,0.9463959,0.4985352,-1.471634,-28.16969,42.28028,102.354,102.0109,10,0.0.0.0,10.139.104.221,1,0
2013-11-11 16:57:53.783,409,40.9,52.17024,4.45731,0,2.810708,280.1817,11.20281,10,1384185431,0.64711,0.7552185,0.1548767,4.305012,-11.77795,49.10905,95.84132,95.4983,10,0.0.0.0,10.139.104.221,1,0
2013-11-11 16:57:53.952,410,41,52.17025,4.457209,0,3.184356,280.2182,11.01564,10,1384185432,0.4356995,0.5897369,0.4134369,8.651249,-6.240933,49.51073,97.35639,97.01337,10,0.0.0.0,10.139.104.221,1,0
2013-11-11 16:57:54.253,411,41.1,52.17025,4.457209,0,3.184356,280.2182,11.01564,10,1384185432,0.8991089,0.7110596,0.583374,11.18198,-4.376987,51.23227,102.0345,101.6915,10,0.0.0.0,10.139.104.221,1,0
2013-11-11 16:57:54.446,412,41.2,52.17025,4.457209,0,3.184356,280.2182,11.01564,10,1384185432,0.8488922,0.8396149,0.5331879,4.855171,-12.76474,49.33858,102.1473,101.8043,10,0.0.0.0,10.139.104.221,1,0
2013-11-11 16:57:54.647,413,41.3,52.17025,4.457209,0,3.184356,280.2182,11.01564,10,1384185432,0.6842346,0.9625702,0.798996,0.1238174,-26.25093,43.37059,100.4305,100.0875,10,0.0.0.0,10.139.104.221,1,0
2013-11-11 16:57:54.817,414,41.4,52.17025,4.457209,0,3.184356,280.2182,11.01564,10,1384185432,0.846405,0.852829,1.018967,-0.2062721,-28.11487,41.76382,100.8799,100.5369,10,0.0.0.0,10.139.104.221,1,0
2013-11-11 16:57:54.947,415,41.5,52.17025,4.457209,0,3.184356,280.2182,11.01564,10,1384185432,0.8401337,0.7402039,0.6512299,2.159401,-22.24893,46.75628,100.5194,100.1763,10,0.0.0.0,10.139.104.221,1,0
2013-11-11 16:57:55.264,416,41.6,52.17025,4.457209,0,3.184356,280.2182,11.01564,10,1384185432,0.5473785,0.5205078,0.2427216,12.06223,-1.855186,52.2652,100.0169,99.67392,10,0.0.0.0,10.139.104.221,1,0
2013-11-11 16:57:55.485,417,41.7,52.17025,4.457209,0,3.184356,280.2182,11.01564,10,1384185432,-0.1741638,0.4375916,0.4046326,7.936047,-6.405399,51.17489,99.50378,99.16075,10,0.0.0.0,10.139.104.221,1,0
2013-11-11 16:57:56.089,418,41.8,52.17026,4.457111,0,3.546409,281.1623,10.89861,10,1384185433,0.3146515,0.3739471,0.4943237,5.845451,-11.33937,49.22382,99.71068,99.36765,10,0.0.0.0,10.139.104.221,1,0
2013-11-11 16:57:56.275,419,41.9,52.17026,4.457111,0,3.546409,281.1623,10.89861,10,1384185433,0.02026367,0.07626343,0.209671,9.036362,-4.980027,51.28966,98.96455,98.62152,10,0.0.0.0,10.139.104.221,1,0
2013-11-11 16:57:56.680,420,42,52.17026,4.457111,0,3.546409,281.1623,10.89861,10,1384185433,0.2610016,-0.1688385,0.7622986,0.1238174,-19.45301,47.15797,97.20996,96.86694,10,0.0.0.0,10.139.104.221,1,0
