time,timestamp,recordtime,lat,long,alt,speed,course,verticalAccuracy,horizontalAccuracy,locTimeStamp,accelerationX,accelerationY,accelerationZ,HeadingX,HeadingY,HeadingZ,TrueHeading,MagneticHeading,HeadingAccuracy,en0,pdp_ip0,DeviceOrientation,Event
2013-11-11 16:54:58.925,1,0.1,52.1702,4.457916,0,0.6499327,78.80726,9.5,5,1384185291,-0.7176819,-0.9442596,-0.7991638,12.45173,-17.79384,-37.45816,82.07938,81.73636,10,0.0.0.0,10.139.104.221,5,0
2013-11-11 16:54:59.218,2,0.2,52.1702,4.457916,0,0.6499327,78.80726,9.5,5,1384185291,-0.7472229,-0.7577209,-0.6615143,11.40649,-17.41006,-36.59689,82.24758,81.90456,10,0.0.0.0,10.139.104.221,5,0
2013-11-11 16:54:59.495,3,0.3,52.1702,4.457916,0,0.6499327,78.80726,9.5,5,1384185291,-0.6436005,-0.3710938,-0.69133,12.61677,-20.15138,-35.44853,88.00574,87.66271,10,0.0.0.0,10.139.104.221,5,0
2013-11-11 16:54:59.706,4,0.4,52.1702,4.457916,0,0.6499327,78.80726,9.5,5,1384185291,-0.6428375,-0.2968903,-0.8063965,13.49697,-21.46721,-36.13755,88.90647,88.56345,10,0.0.0.0,10.139.104.221,5,0
2013-11-11 16:54:59.895,5,0.5,52.1702,4.457916,0,0.6499327,78.80726,9.5,5,1384185291,-0.4056549,-0.05178833,-0.8479767,10.96639,-20.91895,-36.02271,91.54594,91.20291,10,0.0.0.0,10.139.104.221,5,0
2013-11-11 16:55:00.119,6,0.6,52.1702,4.457916,0,0.6499327,78.80726,9.5,5,1384185291,-0.8074341,-0.1777954,-0.7489319,7.060497,-19.43863,-38.26202,86.49422,86.1512,10,0.0.0.0,10.139.104.221,5,0
2013-11-11 16:55:00.330,7,0.7,52.1702,4.457929,0,0.3391264,103.3261,9.5,5,1384185292,-0.4620361,-0.2473755,-0.6587982,5.080044,-18.1228,-39.52522,76.96164,76.61861,10,0.0.0.0,10.139.104.221,5,0
2013-11-11 16:55:00.530,8,0.8,52.1702,4.457929,0,0.3391264,103.3261,9.5,5,1384185292,-0.4860077,-0.2250366,-0.5119476,1.61425,-16.86179,-39.58263,73.59837,73.25534,10,0.0.0.0,10.139.104.221,4,0
2013-11-11 16:55:00.663,9,0.9,52.1702,4.457929,0,0.3391264,103.3261,9.5,5,1384185292,-0.2254944,-0.08319092,-0.7907104,-1.741516,-13.62704,-40.67358,64.13565,63.79263,10,0.0.0.0,10.139.104.221,4,0
2013-11-11 16:55:00.790,10,1,52.1702,4.457929,0,0.3391264,103.3261,9.5,5,1384185292,0.08772278,-0.224411,-0.8056641,-2.126606,-7.65095,-40.96066,44.27391,43.93089,10,0.0.0.0,10.139.104.221,4,0
2013-11-11 16:55:01.107,11,1.1,52.1702,4.457929,0,0.3391264,103.3261,9.5,5,1384185292,0.2374878,0.0352478,-0.9371796,-1.301418,-3.319665,-42.28127,30.59952,30.25649,10,0.0.0.0,10.139.104.221,4,0
2013-11-11 16:55:01.352,12,1.2,52.1702,4.457929,0,0.3391264,103.3261,9.5,5,1384185292,0.2593384,0.009750366,-1.226181,1.779285,2.272628,-41.13292,4.760002,4.416973,10,0.0.0.0,10.139.104.221,4,0
2013-11-11 16:55:01.490,13,1.3,52.1702,4.457929,0,0.3391264,103.3261,9.5,5,1384185292,0.4009552,0.1445007,-1.252274,3.209618,5.781514,-42.97029,354.8125,354.4695,10,0.0.0.0,10.139.104.221,4,0
2013-11-11 16:55:01.603,14,1.4,52.1702,4.457936,0,0.3691896,34.33564,9.5,5,1384185293,0.3708801,-0.06202698,-1.140869,7.610626,6.878043,-43.54447,342.27,341.927,10,0.0.0.0,10.139.104.221,4,0
2013-11-11 16:55:01.766,15,1.5,52.1702,4.457936,0,0.3691896,34.33564,9.5,5,1384185293,0.403656,-0.1419525,-1.262238,9.976166,8.577662,-43.37222,332.1578,331.8148,10,0.0.0.0,10.139.104.221,4,0
2013-11-11 16:55:01.887,16,1.6,52.1702,4.457936,0,0.3691896,34.33564,9.5,5,1384185293,0.5476837,-0.1707611,-1.427078,11.68156,8.632491,-45.61152,327.4514,327.1084,10,0.0.0.0,10.139.104.221,1,0
2013-11-11 16:55:02.119,17,1.7,52.1702,4.457936,0,0.3691896,34.33564,9.5,5,1384185293,0.7016754,-0.2949524,-1.425186,15.86251,6.110472,-46.07086,320.4498,320.1068,10,0.0.0.0,10.139.104.221,1,0
2013-11-11 16:55:02.253,18,1.8,52.1702,4.457936,0,0.3691896,34.33564,9.5,5,1384185293,0.8655548,-0.5183563,-1.017975,18.33808,3.095018,-43.37222,313.5969,313.2539,10,0.0.0.0,10.139.104.221,1,0
2013-11-11 16:55:02.376,19,1.9,52.1702,4.457936,0,0.3691896,34.33564,9.5,5,1384185293,0.7958832,-0.3063965,-0.9652557,21.19873,2.98537,-43.02771,309.6074,309.2643,10,0.0.0.0,10.139.104.221,1,0
2013-11-11 16:55:02.488,20,2,52.1702,4.457936,0,0.3691896,34.33564,9.5,5,1384185293,0.8148956,-0.3637848,-0.6768646,23.39924,3.314328,-43.14255,304.519,304.176,10,0.0.0.0,10.139.104.221,1,0
2013-11-11 16:55:02.667,21,2.1,52.1702,4.457936,0,0.3691896,34.33564,9.5,5,1384185293,0.7495117,-0.1576538,-0.2852936,27.30514,3.040195,-42.28127,304.1976,303.8546,10,0.0.0.0,10.139.104.221,1,0
2013-11-11 16:55:02.795,22,2.2,52.1702,4.457936,0,0.3691896,34.33564,9.5,5,1384185293,0.6855164,-0.1362305,-0.3274689,31.98121,0.3537086,-38.89361,292.0726,291.7296,10,0.0.0.0,10.139.104.221,1,0
2013-11-11 16:55:02.931,23,2.3,52.17021,4.457936,0,0.3867365,40.02607,9.5,5,1384185294,0.564743,-0.1618805,-0.6209259,34.5668,-0.13973,-38.26202,289.6353,289.2923,10,0.0.0.0,10.139.104.221,1,0
2013-11-11 16:55:03.160,24,2.4,52.17021,4.457936,0,0.3867365,40.02607,9.5,5,1384185294,0.4454346,-0.1306763,-0.6750336,38.85778,-3.758274,-32.52022,285.1756,284.8326,10,0.0.0.0,10.139.104.221,1,0
2013-11-11 16:55:03.343,25,2.5,52.17021,4.457936,0,0.3867365,40.02607,9.5,5,1384185294,0.235611,-0.4131317,-0.8162537,41.38836,-5.84168,-29.99382,283.68,283.337,10,0.0.0.0,10.139.104.221,1,0
2013-11-11 16:55:03.467,26,2.6,52.17021,4.457936,0,0.3867365,40.02607,9.5,5,1384185294,-0.1178436,-0.4059601,-0.9072723,45.67934,-7.376822,-25.51522,286.1255,285.7825,10,0.0.0.0,10.139.104.221,1,0
2013-11-11 16:55:03.587,27,2.7,52.17021,4.457936,0,0.3867365,40.02607,9.5,5,1384185294,-0.2311096,-0.3335419,-1.03833,44.46907,-10.55675,-24.8262,283.1158,282.7728,10,0.0.0.0,10.139.104.221,1,0
2013-11-11 16:55:03.784,28,2.8,52.17021,4.457936,0,0.3867365,40.02607,9.5,5,1384185294,0.2865753,-0.4916077,-1.38736,44.79914,-10.55675,-26.43391,285.511,285.168,10,0.0.0.0,10.139.104.221,1,0
2013-11-11 16:55:04.216,29,2.9,52.17021,4.457936,0,0.3867365,40.02607,9.5,5,1384185294,0.4399567,-0.09165955,-1.128845,42.4336,-11.2695,-29.93641,293.6372,293.2942,10,0.0.0.0,10.139.104.221,1,0
2013-11-11 16:55:04.453,30,3,52.17021,4.457936,0,0.3867365,40.02607,9.5,5,1384185294,0.4493866,-0.06837463,-1.018845,42.98373,-11.59845,-29.93641,294.8778,294.5348,10,0.0.0.0,10.139.104.221,1,0
2013-11-11 16:55:04.578,31,3.1,52.17022,4.457936,0,0.3903656,47.88277,9.5,5,1384185295,0.3605499,-0.1845245,-0.9828796,42.65365,-11.4888,-30.16608,298.7161,298.373,10,0.0.0.0,10.139.104.221,1,0
2013-11-11 16:55:04.703,32,3.2,52.17022,4.457936,0,0.3903656,47.88277,9.5,5,1384185295,0.3594208,-0.3457794,-0.7692413,39.84801,-9.460227,-34.35759,299.595,299.252,10,0.0.0.0,10.139.104.221,2,0
2013-11-11 16:55:05.210,33,3.3,52.17022,4.457936,0,0.3903656,47.88277,9.5,5,1384185295,0.2277527,-0.2630463,-0.8770752,39.46292,-10.94053,-33.61116,297.2748,296.9318,10,0.0.0.0,10.139.104.221,2,0
2013-11-11 16:55:05.369,34,3.4,52.17022,4.457936,0,0.3903656,47.88277,9.5,5,1384185295,0.1344299,-0.1619568,-0.928299,39.18785,-9.569876,-34.58726,297.2711,296.9281,10,0.0.0.0,10.139.104.221,2,0
2013-11-11 16:55:05.510,35,3.5,52.17022,4.457936,0,0.3903656,47.88277,9.5,5,1384185295,0.1203918,-0.1294403,-0.9303894,41.49839,-8.034738,-33.55374,295.2289,294.8859,10,0.0.0.0,10.139.104.221,6,0
2013-11-11 16:55:05.645,36,3.6,52.17022,4.457936,0,0.3903656,47.88277,9.5,5,1384185295,0.2670135,-0.2632751,-1.143677,38.47269,-4.25171,-37.40075,292.8831,292.5401,10,0.0.0.0,10.139.104.221,6,0
2013-11-11 16:55:05.773,37,3.7,52.17022,4.457936,0,0.3903656,47.88277,9.5,5,1384185295,0.2242584,-0.1467133,-1.101303,35.447,-6.060984,-39.06587,286.746,286.403,10,0.0.0.0,10.139.104.221,6,0
2013-11-11 16:55:05.899,38,3.8,52.17022,4.457936,0,0,47.88277,9.5,5,1384185296,0.07533264,-0.2063446,-0.8875427,33.46655,-7.596125,-40.0994,284.651,284.308,10,0.0.0.0,10.139.104.221,6,0
2013-11-11 16:55:06.170,39,3.9,52.17022,4.457936,0,0,47.88277,9.5,5,1384185296,0.09899902,-0.2794495,-0.9213409,31.59612,-9.460224,-40.21423,283.0882,282.7452,10,0.0.0.0,10.139.104.221,2,0
2013-11-11 16:55:06.271,40,4,52.17022,4.457936,0,0,47.88277,9.5,5,1384185296,0.1548462,-0.2826996,-1.054489,32.53133,-10.28262,-37.97492,278.0452,277.7021,10,0.0.0.0,10.139.104.221,2,0
2013-11-11 16:55:06.444,41,4.1,52.17022,4.457936,0,0,47.88277,9.5,5,1384185296,0.07072449,-0.3821716,-0.8871002,33.6866,-12.09189,-32.74989,265.2915,264.9485,10,0.0.0.0,10.139.104.221,2,0
2013-11-11 16:55:06.651,42,4.2,52.17022,4.457936,0,0,47.88277,9.5,5,1384185296,-0.04867554,-0.2798004,-0.8527985,33.63158,-18.72589,-27.98419,255.0928,254.7498,10,0.0.0.0,10.139.104.221,2,0
2013-11-11 16:55:06.976,43,4.3,52.17022,4.457936,0,0,47.88277,9.5,5,1384185296,0.1565704,-0.3983002,-0.8614044,29.39561,-18.23245,-30.45317,254.9281,254.5851,10,0.0.0.0,10.139.104.221,2,0
2013-11-11 16:55:07.369,44,4.4,52.17022,4.457936,0,0,47.88277,9.5,5,1384185296,0.09727478,-0.3339539,-0.9007416,27.25012,-14.55908,-33.49632,261.7428,261.3998,10,0.0.0.0,10.139.104.221,2,0
2013-11-11 16:55:07.544,45,4.5,52.17022,4.457936,0,0,47.88277,12.05868,10,1384185297,0.09727478,-0.3339539,-0.9007416,29.23058,-7.431647,-38.5491,276.0695,275.7265,10,0.0.0.0,10.139.104.221,2,0
2013-11-11 16:55:07.658,46,4.6,52.17022,4.457936,0,0,47.88277,12.05868,10,1384185297,0.1304932,-0.3661804,-0.9336548,26.97506,-9.460224,-37.80267,278.1271,277.7841,10,0.0.0.0,10.139.104.221,2,0
2013-11-11 16:55:07.777,47,4.7,52.17022,4.457936,0,0,47.88277,12.05868,10,1384185297,0.06878662,-0.3362885,-0.8979492,28.07531,-10.55675,-36.42464,273.3898,273.0468,10,0.0.0.0,10.139.104.221,2,0
2013-11-11 16:55:07.871,48,4.8,52.17022,4.457936,0,0,47.88277,12.05868,10,1384185297,0.01637268,-0.3817749,-0.8551788,26.09486,-10.4471,-37.45816,272.3107,271.9677,10,0.0.0.0,10.139.104.221,2,0
2013-11-11 16:55:07.985,49,4.9,52.17022,4.457936,0,0,47.88277,12.05868,10,1384185297,0.09786987,-0.335144,-0.8150787,25.81979,-9.624705,-38.31943,271.0054,270.6624,10,0.0.0.0,10.139.104.221,2,0
2013-11-11 16:55:08.301,50,5,52.17022,4.457936,0,0,47.88277,12.05868,10,1384185297,0.0879364,-0.5003662,-0.9519653,26.14987,-13.13359,-38.2046,268.7496,268.4066,10,0.0.0.0,10.139.104.221,2,0
2013-11-11 16:55:08.468,51,5.1,52.17022,4.457936,0,0,47.88277,12.05868,10,1384185297,0.08551025,-0.4937286,-0.87117,22.29898,-11.92741,-39.12328,272.3036,271.9606,10,0.0.0.0,10.139.104.221,2,0
2013-11-11 16:55:08.601,52,5.2,52.17022,4.457936,0,0,47.88277,12.05868,10,1384185297,0.07896423,-0.5115356,-0.8020325,21.96891,-9.405395,-41.99419,272.9591,272.6161,10,0.0.0.0,10.139.104.221,2,0
2013-11-11 16:55:08.715,53,5.3,52.17022,4.457936,0,0,47.88277,12.05868,10,1384185297,0.1965485,-0.4701843,-0.724762,20.5936,-9.350567,-41.36259,273.2798,272.9368,10,0.0.0.0,10.139.104.221,2,0
2013-11-11 16:55:08.994,54,5.4,52.17022,4.457936,0,0,47.88277,9.5,5,1384185298,0.2559357,-0.3459473,-1.015961,21.30876,-6.773731,-41.64968,277.0768,276.7338,10,0.0.0.0,10.139.104.221,2,0
2013-11-11 16:55:09.296,55,5.5,52.17022,4.457936,0,0,47.88277,9.5,5,1384185298,0.3143158,-0.3822479,-1.336899,23.34423,-5.074106,-40.32906,271.7556,271.4126,10,0.0.0.0,10.139.104.221,2,0
2013-11-11 16:55:09.520,56,5.6,52.17022,4.457936,0,0,47.88277,9.5,5,1384185298,0.1959534,-0.3064117,-0.9900055,23.17919,-6.006158,-39.69746,269.3672,269.0242,10,0.0.0.0,10.139.104.221,2,0
2013-11-11 16:55:09.661,57,5.7,52.17022,4.457936,0,0,47.88277,9.5,5,1384185298,0.1151276,-0.2918701,-0.8530884,21.96891,-5.348242,-40.50132,270.8256,270.4825,10,0.0.0.0,10.139.104.221,2,0
2013-11-11 16:55:09.790,58,5.8,52.17022,4.457936,0,0,47.88277,9.5,5,1384185298,-0.0003051758,-0.144989,-0.8616943,22.57405,-7.705776,-37.91751,266.8101,266.467,10,0.0.0.0,10.139.104.221,2,0
2013-11-11 16:55:09.920,59,5.9,52.17022,4.457936,0,0,47.88277,9.5,5,1384185298,0.2209015,-0.3204956,-0.7601166,22.13395,-7.596125,-36.08013,265.8901,265.5471,10,0.0.0.0,10.139.104.221,2,0
2013-11-11 16:55:10.153,60,6,52.17022,4.457936,0,0,47.88277,9.5,5,1384185298,0.2441864,-0.3450775,-0.9439545,21.14372,-7.267166,-36.99882,265.1572,264.8142,10,0.0.0.0,10.139.104.221,2,0
2013-11-11 16:55:10.264,61,6.1,52.17022,4.457936,0,0,47.88277,9.5,5,1384185298,0.3573151,-0.3060608,-1.136383,21.4738,-8.692653,-36.08013,265.7365,265.3935,10,0.0.0.0,10.139.104.221,2,0
2013-11-11 16:55:10.412,62,6.2,52.17022,4.457936,0,0,47.88277,9.5,5,1384185299,0.3295135,-0.2826996,-0.990509,25.76478,-10.88571,-33.4389,267.1888,266.8458,10,0.0.0.0,10.139.104.221,2,0
2013-11-11 16:55:10.770,63,6.3,52.17022,4.457936,0,0,47.88277,9.5,5,1384185299,0.3130341,-0.3733521,-0.8939514,35.66705,-13.18842,-24.13719,264.41,264.067,10,0.0.0.0,10.139.104.221,2,0
2013-11-11 16:55:10.985,64,6.4,52.17022,4.457936,0,0,47.88277,9.5,5,1384185299,0.283371,-0.3555908,-0.9398804,40.72884,-23.85008,4.713234,232.6911,232.348,10,0.0.0.0,10.139.104.221,2,0
2013-11-11 16:55:11.225,65,6.5,52.17022,4.457936,0,0,47.88277,9.5,5,1384185299,0.2367706,-0.4303436,-0.9875793,37.59355,-26.09767,11.31503,223.8761,223.533,10,0.0.0.0,10.139.104.221,2,0
2013-11-11 16:55:11.347,66,6.6,52.17022,4.457936,0,0,47.88277,9.5,5,1384185299,0.2457886,-0.2838135,-0.9762421,38.03359,-25.87839,13.84093,222.0333,221.6902,10,0.0.0.0,10.139.104.221,2,0
2013-11-11 16:55:11.484,67,6.7,52.17022,4.457936,0,0,47.88277,9.5,5,1384185299,0.2746735,-0.1748505,-0.9656982,34.56826,-27.79707,19.63904,219.3187,218.9757,10,0.0.0.0,10.139.104.221,2,0
2013-11-11 16:55:11.585,68,6.8,52.17022,4.457936,0,0,47.88277,9.5,5,1384185299,0.2513275,-0.05288696,-1.039124,31.818,-30.75731,23.54272,216.1168,215.7738,10,0.0.0.0,10.139.104.221,2,0
2013-11-11 16:55:11.818,69,6.9,52.17022,4.457936,0,0,47.88277,12.21122,10,1384185300,0.1429901,-0.06028748,-1.014236,27.96764,-34.26574,26.75751,209.8741,209.5311,10,0.0.0.0,10.139.104.221,2,0
2013-11-11 16:55:12.024,70,7,52.17022,4.457936,0,0,47.88277,12.21122,10,1384185300,0.23526,-0.2012939,-0.9511719,20.15691,-36.56815,37.43521,204.4307,204.0877,10,0.0.0.0,10.139.104.221,2,0
2013-11-11 16:55:12.342,71,7.1,52.17022,4.457936,0,0,47.88277,12.21122,10,1384185300,0.1973114,-0.2353058,-1.013565,16.03152,-35.74587,42.19999,201.3101,200.9671,10,0.0.0.0,10.139.104.221,2,0
2013-11-11 16:55:12.555,72,7.2,52.17022,4.457936,0,0,47.88277,12.21122,10,1384185300,0.2055664,-0.2208252,-1.015503,15.59148,-36.84225,41.28148,197.3283,196.9853,10,0.0.0.0,10.139.104.221,2,0
2013-11-11 16:55:12.750,73,7.3,52.17022,4.457936,0,0,47.88277,12.21122,10,1384185300,0.2157745,-0.2785034,-0.8858185,17.57166,-38.92539,36.22966,195.0153,194.6723,10,0.0.0.0,10.139.104.221,2,0
2013-11-11 16:55:12.944,74,7.4,52.17022,4.457936,0,0,47.88277,12.21122,10,1384185300,0.2401123,-0.4071045,-0.7880402,19.0568,-40.73442,31.23526,191.7856,191.4425,10,0.0.0.0,10.139.104.221,2,0
2013-11-11 16:55:13.234,75,7.5,52.17022,4.457936,0,0,47.88277,12.21122,10,1384185300,0.2328796,-0.3217773,-0.8769073,19.55185,-41.66635,25.55196,187.701,187.3579,10,0.0.0.0,10.139.104.221,2,0
2013-11-11 16:55:13.428,76,7.6,52.17022,4.457936,0,0,47.88277,12.21122,10,1384185300,0.202652,-0.3337555,-0.8633575,22.96217,-41.55671,21.07422,188.2307,187.8877,10,0.0.0.0,10.139.104.221,2,0
2013-11-11 16:55:13.600,77,7.7,52.17022,4.457936,0,0,47.88277,12.21122,10,1384185300,0.1777649,-0.3712769,-0.8516693,24.11728,-41.94045,18.49091,184.2719,183.9288,10,0.0.0.0,10.139.104.221,2,0
2013-11-11 16:55:13.767,78,7.8,52.17022,4.457932,0,0.3451358,289.045,9.5,5,1384185301,0.16539,-0.3121033,-0.9297333,21.20201,-42.43382,17.40017,180.3891,180.046,10,0.0.0.0,10.139.104.221,2,0
2013-11-11 16:55:13.946,79,7.9,52.17022,4.457932,0,0.3451358,289.045,9.5,5,1384185301,0.167038,-0.286377,-0.9989471,20.26692,-43.03683,17.11314,179.4469,179.1039,10,0.0.0.0,10.139.104.221,2,0
2013-11-11 16:55:14.312,80,8,52.17022,4.457932,0,0.3451358,289.045,9.5,5,1384185301,0.1992188,-0.3409271,-0.9090881,16.85659,-44.57177,20.78718,175.8176,175.4746,10,0.0.0.0,10.139.104.221,2,0
2013-11-11 16:55:14.561,81,8.1,52.17022,4.457932,0,0.3451358,289.045,9.5,5,1384185301,0.2329712,-0.3565063,-0.9361877,14.10633,-45.88743,21.13163,172.3828,172.0398,10,0.0.0.0,10.139.104.221,2,0
2013-11-11 16:55:14.788,82,8.2,52.17022,4.457932,0,0.3451358,289.045,9.5,5,1384185301,0.2329712,-0.3565063,-0.9361877,11.68611,-46.32599,19.98349,172.3517,172.0086,10,0.0.0.0,10.139.104.221,2,0
2013-11-11 16:55:14.908,83,8.3,52.17022,4.457932,0,0.3451358,289.045,9.5,5,1384185301,0.2211914,-0.31073,-0.870163,10.16122,-46.65586,22.30865,170.2275,169.8845,10,0.0.0.0,10.139.104.221,2,0
2013-11-11 16:55:15.117,84,8.400001,52.17022,4.457932,0,0.3451358,289.045,9.5,5,1384185301,0.2136078,-0.3573608,-0.8554535,7.575768,-39.47479,35.10964,175.6584,175.3154,10,0.0.0.0,10.139.104.221,2,0
2013-11-11 16:55:15.251,85,8.5,52.17022,4.457932,0,0.3451358,289.045,9.5,5,1384185301,0.2321625,-0.3231354,-0.9226532,3.091511,-35.00272,42.62256,173.8405,173.4975,10,0.0.0.0,10.139.104.221,2,0
2013-11-11 16:55:15.385,86,8.6,52.17022,4.457932,0,0.3451358,289.045,9.5,5,1384185301,0.2688751,-0.2847595,-1.029694,5.622169,-29.95963,45.83687,185.3633,185.0203,10,0.0.0.0,10.139.104.221,2,0
2013-11-11 16:55:15.526,87,8.7,52.17021,4.457926,0,0.3794283,246.998,9.5,5,1384185302,0.2692871,-0.1725464,-1.046555,16.40499,-18.77713,49.96954,229.3412,228.9982,10,0.0.0.0,10.139.104.221,2,0
2013-11-11 16:55:15.677,88,8.8,52.17021,4.457926,0,0.3794283,246.998,9.5,5,1384185302,0.3300018,-0.2564697,-1.227142,19.81589,-15.48816,50.31393,240.883,240.5399,10,0.0.0.0,10.139.104.221,2,0
2013-11-11 16:55:15.772,89,8.900001,52.17021,4.457926,0,0.3794283,246.998,9.5,5,1384185302,0.4293671,-0.2294159,-1.257996,20.75113,-17.18746,48.30499,238.6729,238.3298,10,0.0.0.0,10.139.104.221,2,0
2013-11-11 16:55:15.885,90,9,52.17021,4.457926,0,0.3794283,246.998,9.5,5,1384185302,0.4358673,-0.2779083,-0.9832916,19.21073,-24.75209,46.12386,222.7911,222.4481,10,0.0.0.0,10.139.104.221,2,0
2013-11-11 16:55:16.193,91,9.1,52.17021,4.457926,0,0.3794283,246.998,9.5,5,1384185302,0.2037354,-0.3265686,-0.7134247,18.60557,-42.12883,22.64796,195.3904,195.0474,10,0.0.0.0,10.139.104.221,2,0
2013-11-11 16:55:16.333,92,9.2,52.17021,4.457926,0,0.3794283,246.998,9.5,5,1384185302,0.09742737,-0.1493073,-0.7990112,23.6669,-42.12883,3.247345,194.5559,194.2129,10,0.0.0.0,10.139.104.221,2,0
2013-11-11 16:55:16.476,93,9.3,52.17021,4.457926,0,0.3794283,246.998,9.5,5,1384185302,0.1908722,-0.3636017,-0.8399506,34.33969,-30.39816,5.084091,215.9283,215.5852,10,0.0.0.0,10.139.104.221,2,0
2013-11-11 16:55:16.584,94,9.400001,52.17021,4.457926,0,0.3794283,246.998,9.5,5,1384185302,0.3268127,-0.2418823,-0.8056488,41.93168,-13.84368,6.806038,237.5868,237.2438,10,0.0.0.0,10.139.104.221,2,0
2013-11-11 16:55:16.861,95,9.5,52.17021,4.457919,0,0.4541637,282.8522,9.5,5,1384185303,0.5046234,-0.1694641,-1.162445,46.49788,21.07423,-0.4835434,273.9709,273.6279,10,0.0.0.0,10.139.104.221,2,0
2013-11-11 16:55:16.978,96,9.6,52.17021,4.457919,0,0.4541637,282.8522,9.5,5,1384185303,0.5663452,-0.009841919,-1.09642,39.51105,32.96933,-0.7705307,295.9374,295.5944,10,0.0.0.0,10.139.104.221,2,0
2013-11-11 16:55:17.237,97,9.7,52.17021,4.457919,0,0.4541637,282.8522,9.5,5,1384185303,0.5134583,-0.3889313,-0.5523834,22.8967,48.20824,-5.247597,326.0911,325.748,10,0.0.0.0,10.139.104.221,2,0
2013-11-11 16:55:17.361,98,9.8,52.17021,4.457919,0,0.4541637,282.8522,9.5,5,1384185303,0.5134583,-0.3889313,-0.5523834,15.85485,50.62016,-3.984833,336.8286,336.4856,10,0.0.0.0,10.139.104.221,2,0
2013-11-11 16:55:17.489,99,9.900001,52.17021,4.457919,0,0.4541637,282.8522,9.5,5,1384185303,0.3500519,-0.5095673,-0.199295,26.41762,45.13853,8.183594,343.057,342.714,10,0.0.0.0,10.139.104.221,2,0
2013-11-11 16:55:17.694,100,10,52.17021,4.457919,0,0.4541637,282.8522,9.5,5,1384185303,-0.1895142,-0.5750275,-0.4125061,39.01592,24.47284,31.08551,339.7411,339.398,10,0.0.0.0,10.139.104.221,2,0
2013-11-11 16:55:17.898,101,10.1,52.17021,4.457919,0,0.4541637,282.8522,9.5,5,1384185303,-0.2977142,-0.4479218,-1.299225,28.67321,21.29349,40.49883,326.5524,326.2094,10,0.0.0.0,10.139.104.221,2,0
2013-11-11 16:55:18.113,102,10.2,52.17021,4.457919,0,0.4541637,282.8522,9.5,5,1384185303,-0.0348053,-0.4753723,-1.054733,9.748253,32.69526,36.82534,303.1224,302.7794,10,0.0.0.0,10.139.104.221,2,0
2013-11-11 16:55:18.312,103,10.3,52.17021,4.457903,0,0.5645624,284.3863,11.56473,10,1384185304,0.2288971,-0.7173462,-0.9702911,-10.33201,36.47758,32.63527,76.68592,76.3429,10,0.0.0.0,10.139.104.221,2,0
2013-11-11 16:55:18.465,104,10.4,52.17021,4.457903,0,0.5645624,284.3863,11.56473,10,1384185304,0.1506042,-0.7424316,-0.7807007,-13.30279,30.55743,37.80111,52.63221,52.28918,10,0.0.0.0,10.139.104.221,2,0
2013-11-11 16:55:18.869,105,10.5,52.17021,4.457903,0,0.5645624,284.3863,11.56473,10,1384185304,0.3147736,-0.5960541,-1.638168,-13.96296,28.91294,35.96436,52.585,52.24197,10,0.0.0.0,10.139.104.221,2,0
2013-11-11 16:55:19.383,106,10.6,52.17021,4.457903,0,0.5645624,284.3863,11.56473,10,1384185304,0.2293701,-0.109314,-0.9494781,-28.87186,23.04762,34.29982,88.16914,87.82612,10,0.0.0.0,10.139.104.221,2,0
2013-11-11 16:55:19.600,107,10.7,52.17021,4.457903,0,0.5645624,284.3863,11.56473,10,1384185304,-0.0557251,-0.07319641,-1.367416,-24.52573,21.23868,35.96436,88.25498,87.91196,10,0.0.0.0,10.139.104.221,2,0
2013-11-11 16:55:19.730,108,10.8,52.17021,4.457903,0,0.5645624,284.3863,11.56473,10,1384185304,-0.01391602,-0.4094086,-0.9535522,-21.88504,19.81346,38.2603,205.6316,205.2885,10,0.0.0.0,10.139.104.221,2,0
2013-11-11 16:55:19.843,109,10.9,52.17021,4.457903,0,0.5645624,284.3863,11.56473,10,1384185304,0.0003356934,-0.3499298,-0.828064,-16.49362,18.27861,40.55622,229.2672,228.9242,10,0.0.0.0,10.139.104.221,2,0
2013-11-11 16:55:20.150,110,11,52.17021,4.457903,0,0.5645624,284.3863,11.56473,10,1384185304,0.1536713,-0.3327332,-0.9677124,-10.49705,16.9082,40.84322,239.8428,239.4998,10,0.0.0.0,10.139.104.221,2,0
2013-11-11 16:55:20.271,111,11.1,52.17021,4.457903,0,0.5645624,284.3863,11.56473,10,1384185304,0.2932739,-0.3714142,-1.156921,-4.885582,9.014672,44.17231,253.5034,253.1603,10,0.0.0.0,10.139.104.221,2,0
2013-11-11 16:55:20.398,112,11.2,52.17021,4.457879,0,0.6977925,288.5369,11.45972,10,1384185305,0.2380829,-0.3302002,-0.9333038,-5.435726,6.822023,45.32028,254.6922,254.3492,10,0.0.0.0,10.139.104.221,2,0
2013-11-11 16:55:20.538,113,11.3,52.17021,4.457879,0,0.6977925,288.5369,11.45972,10,1384185305,0.2211761,-0.3798676,-0.7336731,-3.345177,5.287165,45.20549,257.5567,257.2137,10,0.0.0.0,10.139.104.221,2,0
2013-11-11 16:55:20.674,114,11.4,52.17021,4.457879,0,0.6977925,288.5369,11.45972,10,1384185305,0.3894958,-0.3456268,-0.9015198,-1.1446,4.958272,45.66467,256.8244,256.4814,10,0.0.0.0,10.139.104.221,2,0
2013-11-11 16:55:20.794,115,11.5,52.17021,4.457879,0,0.6977925,288.5369,11.45972,10,1384185305,0.273819,-0.3365784,-1.235947,-1.199619,5.99978,45.26289,258.2059,257.8629,10,0.0.0.0,10.139.104.221,2,0
2013-11-11 16:55:20.976,116,11.6,52.17021,4.457879,0,0.6977925,288.5369,11.45972,10,1384185305,0.3668976,-0.4503021,-0.8536224,-2.850052,8.082793,45.26289,258.3294,257.9864,10,0.0.0.0,10.139.104.221,2,0
2013-11-11 16:55:21.197,117,11.7,52.17021,4.457879,0,0.6977925,288.5369,11.45972,10,1384185305,0.4538879,-0.549118,-0.6729126,-5.490742,18.38824,37.22713,258.248,257.905,10,0.0.0.0,10.139.104.221,2,0
2013-11-11 16:55:21.386,118,11.8,52.17021,4.457879,0,0.6977925,288.5369,11.45972,10,1384185305,0.2628326,-0.4465179,-0.9893799,1.441078,26.93956,24.8291,16.82648,16.48345,10,0.0.0.0,10.139.104.221,2,0
2013-11-11 16:55:21.567,119,11.9,52.17021,4.457879,0,0.6977925,288.5369,11.45972,10,1384185305,0.2013397,-0.20961,-1.190796,1.110989,29.68037,22.18878,17.4211,17.07807,10,0.0.0.0,10.139.104.221,2,0
2013-11-11 16:55:21.799,120,12,52.17021,4.457879,0,0.6977925,288.5369,11.45972,10,1384185305,0.2281799,-0.1648712,-0.827652,3.644825,30.76385,21.4497,12.60303,12.26,10,0.0.0.0,10.139.104.221,2,0
2013-11-11 16:55:22.109,121,12.1,52.17021,4.457842,0,0.8358141,276.6185,11.33535,10,1384185306,-0.08132935,-0.2130737,-1.113998,7.605953,21.99235,31.20507,351.2182,350.8752,10,0.0.0.0,10.139.104.221,2,0
2013-11-11 16:55:22.263,122,12.2,52.17021,4.457842,0,0.8358141,276.6185,11.33535,10,1384185306,0.1042023,-0.3047028,-0.8920441,7.495922,20.78626,31.43461,349.5714,349.2284,10,0.0.0.0,10.139.104.221,2,0
2013-11-11 16:55:22.428,123,12.3,52.17021,4.457842,0,0.8358141,276.6185,11.33535,10,1384185306,-0.05732727,-0.3466644,-0.9178772,6.615673,14.86549,35.68106,244.952,244.6089,10,0.0.0.0,10.139.104.221,2,0
2013-11-11 16:55:22.566,124,12.4,52.17021,4.457842,0,0.8358141,276.6185,11.33535,10,1384185306,0.02316284,-0.4241791,-0.8832855,5.73542,12.01475,37.86168,243.6977,243.3547,10,0.0.0.0,10.139.104.221,2,0
2013-11-11 16:55:22.710,125,12.5,52.17021,4.457842,0,0.8358141,276.6185,11.33535,10,1384185306,0.04133606,-0.5293274,-1.01535,4.525074,8.50615,40.96044,241.4147,241.0717,10,0.0.0.0,10.139.104.221,2,0
2013-11-11 16:55:22.832,126,12.6,52.17021,4.457842,0,0.8358141,276.6185,11.33535,10,1384185306,-0.1664124,-0.3049622,-0.9768219,2.104385,5.10719,42.91151,242.8717,242.5287,10,0.0.0.0,10.139.104.221,2,0
2013-11-11 16:55:22.950,127,12.7,52.17021,4.457842,0,0.8358141,276.6185,11.33535,10,1384185306,-0.008270264,-0.3244171,-0.9430542,3.699837,2.420925,43.19844,247.2949,246.9519,10,0.0.0.0,10.139.104.221,2,0
2013-11-11 16:55:23.185,128,12.8,52.17021,4.457842,0,0.8358141,276.6185,11.33535,10,1384185306,0.1601715,-0.4269409,-0.8866272,5.515358,1.269665,42.79675,246.628,246.285,10,0.0.0.0,10.139.104.221,2,0
2013-11-11 16:55:23.298,129,12.9,52.17021,4.457842,0,0.8358141,276.6185,11.33535,10,1384185306,-0.03494263,-0.06974792,-0.9379883,9.256424,6.861493,41.53429,248.6177,248.2747,10,0.0.0.0,10.139.104.221,2,0
2013-11-11 16:55:23.421,130,13,52.17021,4.457792,0,1.00855,270.9031,9.5,5,1384185307,-0.098526,-0.152832,-0.9720917,10.35674,9.164015,40.84567,250.0668,249.7237,10,0.0.0.0,10.139.104.221,2,0
2013-11-11 16:55:23.543,131,13.1,52.17021,4.457792,0,1.00855,270.9031,9.5,5,1384185307,-0.1727753,-0.2306824,-0.9897156,11.40203,13.82388,38.83721,254.147,253.804,10,0.0.0.0,10.139.104.221,2,0
2013-11-11 16:55:23.664,132,13.2,52.17021,4.457792,0,1.00855,270.9031,9.5,5,1384185307,0.0111084,-0.3731232,-0.9925079,11.78714,19.14161,33.95953,325.1201,324.7771,10,0.0.0.0,10.139.104.221,2,0
2013-11-11 16:55:23.820,133,13.3,52.17021,4.457792,0,1.00855,270.9031,9.5,5,1384185307,-0.0581665,-0.4664001,-0.9769592,9.751564,23.25325,29.77046,347.4444,347.1014,10,0.0.0.0,10.139.104.221,2,0
2013-11-11 16:55:23.959,134,13.4,52.17021,4.457792,0,1.00855,270.9031,9.5,5,1384185307,-0.1087952,-0.3958588,-1.068863,7.991066,25.33648,28.62276,353.352,353.009,10,0.0.0.0,10.139.104.221,2,0
2013-11-11 16:55:24.199,135,13.5,52.17021,4.457792,0,1.00855,270.9031,9.5,5,1384185307,-0.1113586,-0.2731171,-0.899765,6.175545,28.35169,24.31892,1.420283,1.077255,10,0.0.0.0,10.139.104.221,2,0
2013-11-11 16:55:24.309,136,13.6,52.17021,4.457792,0,1.00855,270.9031,9.5,5,1384185307,0.02636719,-0.3679352,-1.032379,5.460342,27.85829,25.29446,1.731718,1.38869,10,0.0.0.0,10.139.104.221,2,0
2013-11-11 16:55:24.437,137,13.7,52.17021,4.457792,0,1.00855,270.9031,9.5,5,1384185307,-0.1790161,-0.2323303,-0.8621826,8.211124,24.78826,26.90123,351.959,351.616,10,0.0.0.0,10.139.104.221,2,0
2013-11-11 16:55:24.563,138,13.8,52.17021,4.457792,0,1.00855,270.9031,9.5,5,1384185307,0.0007171631,-0.5887146,-1.189621,10.41175,21.49895,32.63968,338.9049,338.5619,10,0.0.0.0,10.139.104.221,2,0
2013-11-11 16:55:24.672,139,13.9,52.17021,4.457792,0,1.00855,270.9031,9.5,5,1384185307,-0.4569702,-0.1191101,-0.7301941,10.02664,15.19443,36.25491,237.9928,237.6498,10,0.0.0.0,10.139.104.221,2,0
2013-11-11 16:55:24.791,140,14,52.17021,4.457792,0,1.00855,270.9031,9.5,5,1384185307,-0.09587097,-0.4710541,-0.8174133,6.670689,8.780263,39.52583,234.4396,234.0965,10,0.0.0.0,10.139.104.221,2,0
2013-11-11 16:55:24.908,141,14.1,52.17021,4.457792,0,1.00855,270.9031,9.5,5,1384185307,-0.2358551,-0.3409882,-0.7900848,2.434479,1.708242,44.51828,232.9206,232.5776,10,0.0.0.0,10.139.104.221,2,0
2013-11-11 16:55:25.142,142,14.2,52.17021,4.45774,0,1.215551,264.7961,9.5,5,1384185308,-0.05345154,-0.4141083,-1.018936,1.55423,-1.800355,44.86259,233.4205,233.0775,10,0.0.0.0,10.139.104.221,2,0
2013-11-11 16:55:25.255,143,14.3,52.17021,4.45774,0,1.215551,264.7961,9.5,5,1384185308,-0.1418915,-0.3284607,-0.8179626,2.819588,-3.280545,44.4609,235.1854,234.8424,10,0.0.0.0,10.139.104.221,2,0
2013-11-11 16:55:25.371,144,14.4,52.17021,4.45774,0,1.215551,264.7961,9.5,5,1384185308,-0.09965515,-0.3888092,-1.024063,3.644825,-3.993228,44.86259,235.8372,235.4942,10,0.0.0.0,10.139.104.221,2,0
2013-11-11 16:55:25.483,145,14.5,52.17021,4.45774,0,1.215551,264.7961,9.5,5,1384185308,-0.1445465,-0.3856964,-0.9950409,4.084949,-2.567862,44.40351,233.8825,233.5395,10,0.0.0.0,10.139.104.221,2,0
2013-11-11 16:55:25.585,146,14.6,52.17021,4.45774,0,1.215551,264.7961,9.5,5,1384185308,-0.09156799,-0.3730621,-0.9938812,4.910183,3.298072,44.11659,235.1435,234.8005,10,0.0.0.0,10.139.104.221,2,0
2013-11-11 16:55:25.731,147,14.7,52.17021,4.45774,0,1.215551,264.7961,9.5,5,1384185308,-0.07540894,-0.2725372,-0.8665314,3.809872,15.57818,39.87014,232.0102,231.6672,10,0.0.0.0,10.139.104.221,2,0
2013-11-11 16:55:25.849,148,14.8,52.17021,4.45774,0,1.215551,264.7961,9.5,5,1384185308,0.06491089,-0.523819,-0.7855072,0.1788368,22.70503,32.63968,15.09728,14.75425,10,0.0.0.0,10.139.104.221,2,0
2013-11-11 16:55:25.976,149,14.9,52.17021,4.45774,0,1.215551,264.7961,9.5,5,1384185308,0.09117126,-0.5478516,-1.009247,-0.9214783,25.66541,28.96708,20.39305,20.05002,10,0.0.0.0,10.139.104.221,2,0
2013-11-11 16:55:26.371,150,15,52.17021,4.45774,0,1.215551,264.7961,9.5,5,1384185308,-0.1143036,-0.3784027,-0.9881287,-0.3163071,24.07558,31.20507,19.4983,19.15528,10,0.0.0.0,10.139.104.221,2,0
2013-11-11 16:55:26.663,151,15.1,52.17021,4.45774,0,1.215551,264.7961,9.5,5,1384185308,-0.1846313,-0.2445526,-0.8212891,0.1238174,16.72944,35.22199,255.5786,255.2355,10,0.0.0.0,10.139.104.221,2,0
2013-11-11 16:55:26.821,152,15.2,52.17021,4.45774,0,1.215551,264.7961,9.5,5,1384185308,0.09579468,-0.5393372,-0.8126068,0.288868,13.3853,36.42706,257.0419,256.6989,10,0.0.0.0,10.139.104.221,2,0
2013-11-11 16:55:26.962,153,15.3,52.17021,4.457672,0,1.437701,274.2785,9.5,5,1384185309,-0.0161438,-0.4620056,-0.8288116,-1.6917,8.889909,38.4929,257.8615,257.5184,10,0.0.0.0,10.139.104.221,2,0
2013-11-11 16:55:27.200,154,15.4,52.17021,4.457672,0,1.437701,274.2785,9.5,5,1384185309,-0.1021881,-0.2277985,-1.056625,-1.306587,3.352893,40.15706,261.0818,260.7388,10,0.0.0.0,10.139.104.221,2,0
2013-11-11 16:55:27.342,155,15.5,52.17021,4.457672,0,1.437701,274.2785,9.5,5,1384185309,0.02238464,-0.381546,-0.9242859,0.4539146,4.778265,39.69798,259.0421,258.6991,10,0.0.0.0,10.139.104.221,2,0
2013-11-11 16:55:27.466,156,15.6,52.17021,4.457672,0,1.437701,274.2785,9.5,5,1384185309,0.1345062,-0.533905,-0.7754669,4.745136,14.97514,37.4026,257.6889,257.3459,10,0.0.0.0,10.139.104.221,2,0
2013-11-11 16:55:27.593,157,15.7,52.17021,4.457672,0,1.437701,274.2785,9.5,5,1384185309,0.1345062,-0.533905,-0.7754669,2.929623,20.62179,33.09876,38.21609,37.87306,10,0.0.0.0,10.139.104.221,2,0
2013-11-11 16:55:27.688,158,15.8,52.17021,4.457672,0,1.437701,274.2785,9.5,5,1384185309,0.01757812,-0.4775543,-0.8539581,0.3438835,24.73344,29.48353,17.06299,16.71996,10,0.0.0.0,10.139.104.221,2,0
2013-11-11 16:55:27.830,159,15.9,52.17021,4.457672,0,1.437701,274.2785,9.5,5,1384185309,-0.0198822,-0.2453766,-0.8722229,-2.131824,28.51615,26.90123,26.88894,26.54591,10,0.0.0.0,10.139.104.221,2,0
2013-11-11 16:55:27.951,160,16,52.17021,4.457672,0,1.437701,274.2785,9.5,5,1384185309,0.1882172,-0.6049194,-0.9464264,-2.626965,29.00955,27.41769,29.24272,28.89969,10,0.0.0.0,10.139.104.221,2,0
2013-11-11 16:55:28.183,161,16.1,52.17021,4.457672,0,1.437701,274.2785,9.5,5,1384185309,-0.1733398,-0.1492767,-0.8497314,-0.7564316,23.74664,30.97553,17.28574,16.94271,10,0.0.0.0,10.139.104.221,2,0
2013-11-11 16:55:28.304,162,16.2,52.17021,4.457672,0,1.437701,274.2785,9.5,5,1384185309,0.01092529,-0.2345428,-1.012329,-0.4263382,20.34768,34.0743,254.7518,254.4087,10,0.0.0.0,10.139.104.221,2,0
2013-11-11 16:55:28.442,163,16.3,52.17021,4.457672,0,1.437701,274.2785,9.5,5,1384185309,0.07157898,-0.4520874,-0.7282104,-2.571949,12.50815,38.26337,264.872,264.529,10,0.0.0.0,10.139.104.221,2,0
2013-11-11 16:55:28.634,164,16.4,52.17022,4.457606,0,1.731456,282.7768,9.5,5,1384185310,0.0869751,-0.4012756,-1.019379,-5.2127,5.600591,41.36213,259.8038,259.4608,10,0.0.0.0,10.139.104.221,2,0
2013-11-11 16:55:29.242,165,16.5,52.17022,4.457606,0,1.731456,282.7768,9.5,5,1384185310,0.06295776,-0.3050537,-1.023636,1.49921,27.74864,27.81938,23.51965,23.17662,10,0.0.0.0,10.139.104.221,2,0
2013-11-11 16:55:29.527,166,16.6,52.17022,4.457606,0,1.731456,282.7768,9.5,5,1384185310,-0.1363678,-0.08233643,-1.365768,3.534794,20.23805,33.27091,260.3556,260.0125,10,0.0.0.0,10.139.104.221,2,0
2013-11-11 16:55:29.749,167,16.7,52.17022,4.457606,0,1.731456,282.7768,9.5,5,1384185310,-0.0279541,-0.4134827,-0.5661316,2.489498,13.05637,38.03383,266.7177,266.3747,10,0.0.0.0,10.139.104.221,2,0
2013-11-11 16:55:29.952,168,16.8,52.17022,4.457606,0,1.731456,282.7768,9.5,5,1384185310,-0.1603394,-0.3663635,-1.381653,0.288868,6.697029,40.32921,263.358,263.015,10,0.0.0.0,10.139.104.221,2,0
2013-11-11 16:55:30.327,169,16.9,52.17023,4.45753,0,2.007996,286.4009,9,10,1384185311,-0.1603394,-0.3470154,-0.6408234,8.156113,19.03196,33.84476,266.3396,265.9966,10,0.0.0.0,10.139.104.221,2,0
2013-11-11 16:55:30.486,170,17,52.17023,4.45753,0,2.007996,286.4009,9,10,1384185311,-0.140686,-0.4811554,-0.9519196,4.580093,27.639,27.58984,18.2379,17.89487,10,0.0.0.0,10.139.104.221,2,0
2013-11-11 16:55:30.681,171,17.1,52.17023,4.45753,0,2.007996,286.4009,9,10,1384185311,-0.1755981,-0.427887,-0.6464996,2.489498,30.48974,23.91723,24.31194,23.96891,10,0.0.0.0,10.139.104.221,2,0
2013-11-11 16:55:31.282,172,17.2,52.17023,4.45753,0,2.007996,286.4009,9,10,1384185311,-0.1775665,-0.1137085,-1.142899,0.7289925,7.793468,39.75537,261.9459,261.6028,10,0.0.0.0,10.139.104.221,2,0
2013-11-11 16:55:31.738,173,17.3,52.17023,4.45753,0,2.007996,286.4009,9,10,1384185311,0.1755219,-0.7964172,-0.9703064,1.939339,3.188426,41.01783,260.3662,260.0232,10,0.0.0.0,10.139.104.221,2,0
2013-11-11 16:55:32.127,174,17.4,52.17023,4.457463,0,2.258219,282.6673,9,10,1384185312,0.1755219,-0.7964172,-0.9703064,5.845451,16.18122,36.36968,262.7546,262.4116,10,0.0.0.0,10.139.104.221,4,0
2013-11-11 16:55:32.347,175,17.5,52.17023,4.457463,0,2.258219,282.6673,9,10,1384185312,-0.06286621,-0.1589661,-1.467499,3.974918,26.04917,29.5983,17.02118,16.67815,10,0.0.0.0,10.139.104.221,4,0
2013-11-11 16:55:32.578,176,17.6,52.17023,4.457463,0,2.258219,282.6673,9,10,1384185312,-0.03179932,-0.482254,-1.050812,2.874603,29.44812,26.84385,18.7836,18.44057,10,0.0.0.0,10.139.104.221,4,0
2013-11-11 16:55:32.717,177,17.7,52.17023,4.457463,0,2.258219,282.6673,9,10,1384185312,-0.09338379,-0.3368073,-0.7700653,2.324448,29.44812,27.30292,18.52675,18.18372,10,0.0.0.0,10.139.104.221,4,0
2013-11-11 16:55:32.884,178,17.8,52.17023,4.457463,0,2.258219,282.6673,9,10,1384185312,0.1720428,-0.7391052,-0.9081573,5.185265,26.48774,29.94261,8.664427,8.321398,10,0.0.0.0,10.139.104.221,4,0
2013-11-11 16:55:33.166,179,17.9,52.17023,4.457463,0,2.258219,282.6673,9,10,1384185312,-0.009063721,-0.5686035,-0.6036224,3.644825,11.79547,40.04229,261.698,261.355,10,0.0.0.0,10.139.104.221,4,0
2013-11-11 16:55:33.385,180,18,52.17023,4.457463,0,2.258219,282.6673,9,10,1384185312,-0.421875,-0.08120728,-1.111786,0.01379013,5.216839,41.53429,263.1874,262.8444,10,0.0.0.0,10.139.104.221,4,0
2013-11-11 16:55:33.497,181,18.1,52.17023,4.457463,0,2.258219,282.6673,9,10,1384185312,-0.1447601,-0.1330109,-1.151459,3.479778,3.95593,40.09967,266.5304,266.1874,10,0.0.0.0,10.139.104.221,4,0
2013-11-11 16:55:33.663,182,18.2,52.17023,4.457463,0,2.258219,282.6673,9,10,1384185312,-0.5492096,0.3860016,-0.5118561,7.605953,13.44013,37.51737,267.7428,267.3997,10,0.0.0.0,10.139.104.221,4,0
2013-11-11 16:55:33.769,183,18.3,52.17023,4.457463,0,2.258219,282.6673,9,10,1384185312,-0.06292725,-0.3167419,-1.298645,7.055798,19.79947,35.10722,267.4769,267.1339,10,0.0.0.0,10.139.104.221,4,0
2013-11-11 16:55:33.917,184,18.4,52.17024,4.457381,0,2.534265,283.1082,9,10,1384185313,-0.3685303,-0.09938049,-0.6218262,3.809872,32.1344,25.86831,20.51526,20.17223,10,0.0.0.0,10.139.104.221,4,0
2013-11-11 16:55:34.174,185,18.5,52.17024,4.457381,0,2.534265,283.1082,9,10,1384185313,0.2137909,-0.4023438,-1.512497,6.230564,29.3933,27.36031,10.62772,10.28469,10,0.0.0.0,10.139.104.221,4,0
2013-11-11 16:55:34.304,186,18.6,52.17024,4.457381,0,2.534265,283.1082,9,10,1384185313,-0.1378174,-0.04135132,-0.833313,6.945766,25.93952,32.35276,359.6648,359.3218,10,0.0.0.0,10.139.104.221,4,0
2013-11-11 16:55:34.444,187,18.7,52.17024,4.457381,0,2.534265,283.1082,9,10,1384185313,0.1689606,-0.6416016,-0.503418,7.110813,22.92432,35.27937,278.149,277.806,10,0.0.0.0,10.139.104.221,4,0
2013-11-11 16:55:34.604,188,18.8,52.17024,4.457381,0,2.534265,283.1082,9,10,1384185313,-0.623703,-0.003204346,-0.8168182,6.285576,14.09799,39.35367,260.1985,259.8555,10,0.0.0.0,10.139.104.221,4,0
2013-11-11 16:55:34.843,189,18.9,52.17024,4.457381,0,2.534265,283.1082,9,10,1384185313,0.2362823,-0.404007,-1.429657,3.809872,10.53456,41.36213,259.228,258.8849,10,0.0.0.0,10.139.104.221,4,0
2013-11-11 16:55:35.102,190,19,52.17024,4.457381,0,2.534265,283.1082,9,10,1384185313,0.2192993,-0.6255493,-0.7797546,2.104385,31.86029,29.82784,17.87194,17.52891,10,0.0.0.0,10.139.104.221,4,0
2013-11-11 16:55:35.362,191,19.1,52.17024,4.457381,0,2.534265,283.1082,9,10,1384185313,-0.1720276,-0.1929169,-0.9197083,4.470058,29.50295,28.04892,13.56688,13.22385,10,0.0.0.0,10.139.104.221,4,0
2013-11-11 16:55:35.488,192,19.2,52.17025,4.457297,0,2.788548,283.1134,9,10,1384185314,0.05029297,-0.4771729,-0.5198975,4.965202,25.61059,31.77892,4.192019,3.84899,10,0.0.0.0,10.139.104.221,4,0
2013-11-11 16:55:35.600,193,19.3,52.17025,4.457297,0,2.788548,283.1134,9,10,1384185314,0.7984161,-0.7860718,-0.6125336,5.73542,22.10199,34.41861,222.7156,222.3726,10,0.0.0.0,10.139.104.221,4,0
2013-11-11 16:55:35.763,194,19.4,52.17025,4.457297,0,2.788548,283.1134,9,10,1384185314,0.6415863,-0.5702515,-0.4365234,1.939339,8.341686,41.1326,256.2399,255.8968,10,0.0.0.0,10.139.104.221,4,0
2013-11-11 16:55:36.252,195,19.5,52.17025,4.457297,0,2.788548,283.1134,9,10,1384185314,0.7036896,-0.3989563,-1.355789,2.929623,29.06437,29.08184,18.73979,18.39676,10,0.0.0.0,10.139.104.221,4,0
2013-11-11 16:55:36.501,196,19.6,52.17025,4.457297,0,2.788548,283.1134,9,10,1384185314,0.6016083,-0.3179016,-1.262939,7.771,22.15681,32.63968,276.2723,275.9293,10,0.0.0.0,10.139.104.221,4,0
2013-11-11 16:55:36.693,197,19.7,52.17026,4.457216,0,3.025488,282.5637,9,5,1384185315,0.5036469,-0.4431152,-1.059525,7.165829,17.49694,34.99245,261.5668,261.2238,10,0.0.0.0,10.139.104.221,4,0
2013-11-11 16:55:36.926,198,19.8,52.17026,4.457216,0,3.025488,282.5637,9,5,1384185315,0.2434082,0.1554871,-1.793259,4.360027,2.311279,42.50982,258.0768,257.7338,10,0.0.0.0,10.139.104.221,4,0
2013-11-11 16:55:37.169,199,19.9,52.17026,4.457216,0,3.025488,282.5637,9,5,1384185315,0.002258301,0.2330475,-1.632782,5.79044,7.135605,42.9689,256.0344,255.6913,10,0.0.0.0,10.139.104.221,4,0
2013-11-11 16:55:37.301,200,20,52.17026,4.457216,0,3.025488,282.5637,9,5,1384185315,-0.1473083,0.2746124,-1.145721,7.330875,13.60459,40.90306,255.8802,255.5372,10,0.0.0.0,10.139.104.221,4,0
2013-11-11 16:55:37.432,201,20.1,52.17026,4.457216,0,3.025488,282.5637,9,5,1384185315,-0.1281738,0.2478333,-1.038498,3.039654,29.3933,31.26245,12.58655,12.24352,10,0.0.0.0,10.139.104.221,4,0
2013-11-11 16:55:37.564,202,20.2,52.17026,4.457216,0,3.025488,282.5637,9,5,1384185315,-0.09837341,0.1672363,-0.9135284,4.690125,26.76185,30.22953,8.783118,8.440089,10,0.0.0.0,10.139.104.221,4,0
2013-11-11 16:55:37.686,203,20.3,52.17026,4.457216,0,3.025488,282.5637,9,5,1384185315,-0.09837341,0.1672363,-0.9135284,5.900467,20.62179,34.01691,275.5951,275.2521,10,0.0.0.0,10.139.104.221,4,0
2013-11-11 16:55:37.808,204,20.4,52.17026,4.457216,0,3.025488,282.5637,9,5,1384185315,-0.1087799,0.1167603,-0.6807556,4.249996,12.61779,38.26337,261.7955,261.4525,10,0.0.0.0,10.139.104.221,4,0
2013-11-11 16:55:37.936,205,20.5,52.17026,4.457216,0,3.025488,282.5637,9,5,1384185315,-0.1699219,-0.1766663,-0.626709,2.324448,7.409712,41.76382,258.7718,258.4287,10,0.0.0.0,10.139.104.221,4,0
2013-11-11 16:55:38.176,206,20.6,52.17027,4.457142,0,3.215852,281.8798,9,5,1384185316,-0.1557312,-0.2057495,-0.6800995,1.55423,2.914314,42.33767,261.867,261.524,10,0.0.0.0,10.139.104.221,4,0
2013-11-11 16:55:38.307,207,20.7,52.17027,4.457142,0,3.215852,281.8798,9,5,1384185316,-0.1065369,-0.262207,-0.7634888,2.104385,4.778259,43.48536,260.6965,260.3535,10,0.0.0.0,10.139.104.221,4,0
2013-11-11 16:55:38.447,208,20.8,52.17027,4.457142,0,3.215852,281.8798,9,5,1384185316,-0.08557129,-0.3775177,-0.8254242,2.874603,9.054369,43.60013,258.0994,257.7564,10,0.0.0.0,10.139.104.221,4,0
2013-11-11 16:55:38.561,209,20.9,52.17027,4.457142,0,3.215852,281.8798,9,5,1384185316,-0.01649475,-0.4678497,-0.9368744,4.580093,15.02995,40.90306,256.5024,256.1594,10,0.0.0.0,10.139.104.221,4,0
2013-11-11 16:55:38.699,210,21,52.17027,4.457142,0,3.215852,281.8798,9,5,1384185316,-0.01649475,-0.4678497,-0.9368744,3.039654,28.18722,31.8363,15.05679,14.71376,10,0.0.0.0,10.139.104.221,4,0
2013-11-11 16:55:38.832,211,21.1,52.17027,4.457142,0,3.215852,281.8798,9,5,1384185316,-0.01344299,-0.5766296,-0.8547974,2.984634,30.43492,30.63123,14.04422,13.70119,10,0.0.0.0,10.139.104.221,4,0
2013-11-11 16:55:38.947,212,21.2,52.17027,4.457142,0,3.215852,281.8798,9,5,1384185316,-0.02844238,-0.6347046,-0.8274384,5.570374,26.8715,33.09876,4.546657,4.203628,10,0.0.0.0,10.139.104.221,4,0
2013-11-11 16:55:39.193,213,21.3,52.17027,4.457142,0,3.215852,281.8798,9,5,1384185316,-0.01037598,-0.5762024,-0.9093018,6.230564,21.38931,36.54183,272.3148,271.9718,10,0.0.0.0,10.139.104.221,4,0
2013-11-11 16:55:39.302,214,21.4,52.17027,4.457142,0,3.215852,281.8798,9,5,1384185316,-0.02546692,-0.5396423,-1.116837,4.965202,15.85229,39.81275,260.2621,259.919,10,0.0.0.0,10.139.104.221,4,0
2013-11-11 16:55:39.451,215,21.5,52.17027,4.457142,0,3.215852,281.8798,9,5,1384185316,-0.06584167,-0.4221954,-1.183502,3.2047,3.35289,41.30475,263.3992,263.0562,10,0.0.0.0,10.139.104.221,4,0
2013-11-11 16:55:39.567,216,21.6,52.17027,4.457142,0,3.215852,281.8798,9,5,1384185316,-0.1249695,-0.3917847,-1.086456,3.699837,5.271657,40.32921,262.9604,262.6174,10,0.0.0.0,10.139.104.221,4,0
2013-11-11 16:55:39.692,217,21.7,52.17027,4.457142,0,3.215852,281.8798,9,5,1384185316,-0.08728027,-0.3133392,-1.190704,4.800152,8.999551,39.9849,259.2591,258.9161,10,0.0.0.0,10.139.104.221,4,0
2013-11-11 16:55:39.825,218,21.8,52.17028,4.457067,0,3.41114,282.9149,9,5,1384185317,0.06613159,-0.2215881,-1.299377,5.460342,21.06037,33.21353,181.1779,180.8348,10,0.0.0.0,10.139.104.221,4,0
2013-11-11 16:55:39.936,219,21.9,52.17028,4.457067,0,3.41114,282.9149,9,5,1384185317,0.1422729,-0.1493683,-1.250595,4.580093,27.31007,28.39323,12.63314,12.29012,10,0.0.0.0,10.139.104.221,4,0
2013-11-11 16:55:40.195,220,22,52.17028,4.457067,0,3.41114,282.9149,9,5,1384185317,0.1105194,-0.1677551,-1.082214,3.919903,30.59938,27.13077,16.98508,16.64205,10,0.0.0.0,10.139.104.221,4,0
2013-11-11 16:55:40.305,221,22.1,52.17028,4.457067,0,3.41114,282.9149,9,5,1384185317,0.09953308,-0.181488,-0.896286,4.965202,28.57097,30.28691,11.48656,11.14353,10,0.0.0.0,10.139.104.221,4,0
2013-11-11 16:55:40.460,222,22.2,52.17028,4.457067,0,3.41114,282.9149,9,5,1384185317,0.07647705,-0.2311554,-0.6002808,10.08166,23.36289,32.75445,355.4452,355.1021,10,0.0.0.0,10.139.104.221,4,0
2013-11-11 16:55:40.594,223,22.3,52.17028,4.457067,0,3.41114,282.9149,9,5,1384185317,0.02651978,-0.1778412,-0.5392609,7.165829,13.33048,40.27182,259.3877,259.0447,10,0.0.0.0,10.139.104.221,4,0
2013-11-11 16:55:40.701,224,22.4,52.17028,4.457067,0,3.41114,282.9149,9,5,1384185317,0.09622192,-0.2786713,-0.51828,4.139969,4.833084,45.37905,260.5239,260.1809,10,0.0.0.0,10.139.104.221,4,0
2013-11-11 16:55:40.861,225,22.5,52.17028,4.457067,0,3.41114,282.9149,9,5,1384185317,0.1204834,-0.2315674,-0.4394531,5.73542,3.791464,45.09212,262.0955,261.7524,10,0.0.0.0,10.139.104.221,4,0
2013-11-11 16:55:41.116,226,22.6,52.17028,4.457067,0,3.41114,282.9149,9,5,1384185317,0.1160431,-0.2191162,-0.3694153,7.771,6.916314,44.11659,255.9478,255.6048,10,0.0.0.0,10.139.104.221,4,0
2013-11-11 16:55:41.380,227,22.7,52.17028,4.457067,0,3.41114,282.9149,9,5,1384185317,0.1160431,-0.2191162,-0.3694153,9.806583,18.04517,36.94352,254.287,253.944,10,0.0.0.0,10.139.104.221,4,0
2013-11-11 16:55:41.653,228,22.8,52.17028,4.457067,0,3.41114,282.9149,9,5,1384185317,0.04766846,-0.0721283,-0.6952362,7.220844,30.81867,25.75354,32.55408,32.21105,10,0.0.0.0,10.139.104.221,4,0
2013-11-11 16:55:41.816,229,22.9,52.17028,4.456997,0,3.614581,281.1324,9,5,1384185318,0.1195374,-0.01483154,-0.6824341,7.000778,30.81867,25.63877,14.86971,14.52668,10,0.0.0.0,10.139.104.221,4,0
2013-11-11 16:55:41.965,230,23,52.17028,4.456997,0,3.614581,281.1324,9,5,1384185318,0.1573181,0.0680542,-0.6182556,8.486206,27.80347,28.33584,6.333979,5.99095,10,0.0.0.0,10.139.104.221,4,0
2013-11-11 16:55:42.199,231,23.1,52.17028,4.456997,0,3.614581,281.1324,9,5,1384185318,0.1279297,0.06941223,-0.6417236,6.670689,11.631,37.45998,257.8532,257.5102,10,0.0.0.0,10.139.104.221,4,0
2013-11-11 16:55:42.343,232,23.2,52.17028,4.456997,0,3.614581,281.1324,9,5,1384185318,0.419693,-0.003967285,-0.8750305,5.405327,3.462533,42.56721,260.5264,260.1834,10,0.0.0.0,10.139.104.221,4,0
2013-11-11 16:55:42.480,233,23.3,52.17028,4.456997,0,3.614581,281.1324,9,5,1384185318,0.5490265,0.04037476,-1.091736,6.450623,4.723438,41.1326,261.0099,260.6669,10,0.0.0.0,10.139.104.221,4,0
2013-11-11 16:55:42.615,234,23.4,52.17028,4.456997,0,3.614581,281.1324,9,5,1384185318,0.6920776,0.07040405,-0.9150543,7.991066,12.06958,39.06675,260.0604,259.7173,10,0.0.0.0,10.139.104.221,4,0
2013-11-11 16:55:42.752,235,23.5,52.17028,4.456997,0,3.614581,281.1324,9,5,1384185318,0.8665161,0.002746582,-0.8791504,7.000778,23.80147,29.19661,173.3636,173.0206,10,0.0.0.0,10.139.104.221,4,0
2013-11-11 16:55:42.892,236,23.6,52.17028,4.456997,0,3.614581,281.1324,9,5,1384185318,1.035416,-0.06124878,-1.105164,5.570374,29.3933,24.83538,20.47557,20.13255,10,0.0.0.0,10.139.104.221,4,0
2013-11-11 16:55:43.118,237,23.7,52.17028,4.456997,0,3.614581,281.1324,9,5,1384185318,0.9401245,-0.01597595,-1.496033,6.120529,31.91511,28.27846,15.22034,14.87731,10,0.0.0.0,10.139.104.221,4,0
2013-11-11 16:55:43.274,238,23.8,52.17028,4.456997,0,3.614581,281.1324,9,5,1384185318,1.003876,0.2096558,-1.369827,8.816299,28.02275,33.38568,2.09563,1.752602,10,0.0.0.0,10.139.104.221,4,0
2013-11-11 16:55:43.405,239,23.9,52.17028,4.456997,0,3.614581,281.1324,9,5,1384185318,1.352188,0.2332001,-1.129013,10.02664,24.29486,37.05829,275.4336,275.0905,10,0.0.0.0,10.139.104.221,4,0
2013-11-11 16:55:43.522,240,24,52.1703,4.456919,0,3.807593,281.3981,9,5,1384185319,1.114899,0.03608704,-1.29689,10.35674,21.66341,38.43552,263.0381,262.6951,10,0.0.0.0,10.139.104.221,4,0
2013-11-11 16:55:43.667,241,24.1,52.1703,4.456919,0,3.807593,281.3981,9,5,1384185319,0.9319763,0.2737122,-1.141479,6.78072,10.97314,44.69044,260.478,260.1349,10,0.0.0.0,10.139.104.221,4,0
2013-11-11 16:55:43.802,242,24.2,52.1703,4.456919,0,3.807593,281.3981,9,5,1384185319,0.7841949,0.2501068,-0.9404755,5.460342,4.723441,47.10059,260.1559,259.8128,10,0.0.0.0,10.139.104.221,4,0
2013-11-11 16:55:44.107,243,24.3,52.1703,4.456919,0,3.807593,281.3981,9,5,1384185319,0.7345123,0.01530457,-1.189285,6.890751,2.749853,47.21535,258.5921,258.2491,10,0.0.0.0,10.139.104.221,4,0
2013-11-11 16:55:44.305,244,24.4,52.1703,4.456919,0,3.807593,281.3981,9,5,1384185319,0.5486603,-0.1765442,-0.9831238,10.68683,11.68582,43.14105,251.7148,251.3718,10,0.0.0.0,10.139.104.221,4,0
2013-11-11 16:55:44.516,245,24.5,52.1703,4.456919,0,3.807593,281.3981,9,5,1384185319,0.4271851,-0.1915894,-0.7498932,10.74185,22.04716,35.27937,164.9878,164.6448,10,0.0.0.0,10.139.104.221,4,0
2013-11-11 16:55:44.756,246,24.6,52.1703,4.456919,0,3.807593,281.3981,9,5,1384185319,0.3757019,-0.205307,-0.6536865,8.156113,30.65421,27.18815,165.4698,165.1268,10,0.0.0.0,10.139.104.221,4,0
2013-11-11 16:55:44.941,247,24.7,52.1703,4.456919,0,3.807593,281.3981,9,5,1384185319,0.3274536,-0.1927032,-0.7717133,8.211124,26.76185,29.19661,172.433,172.09,10,0.0.0.0,10.139.104.221,4,0
2013-11-11 16:55:45.251,248,24.8,52.1703,4.456919,0,3.807593,281.3981,9,5,1384185319,0.326828,0.00843811,-1.004913,10.02664,20.45733,35.79583,244.1934,243.8503,10,0.0.0.0,10.139.104.221,4,0
2013-11-11 16:55:45.430,249,24.9,52.1703,4.456919,0,3.807593,281.3981,9,5,1384185319,0.326828,0.00843811,-1.004913,7.715988,13.33048,40.61613,261.5521,261.2091,10,0.0.0.0,10.139.104.221,4,0
2013-11-11 16:55:45.594,250,25,52.1703,4.456919,0,3.807593,281.3981,9,5,1384185319,0.4607697,0.1557159,-1.286148,5.295296,3.023962,45.78074,262.9569,262.6139,10,0.0.0.0,10.139.104.221,4,0
2013-11-11 16:55:45.794,251,25.1,52.1703,4.456835,0,3.991971,282.3799,9,5,1384185320,0.4633026,0.1414032,-1.350342,7.660969,5.271663,44.57566,257.8525,257.5095,10,0.0.0.0,10.139.104.221,4,0
2013-11-11 16:55:46.032,252,25.2,52.1703,4.456835,0,3.991971,282.3799,9,5,1384185320,0.4047852,0.121933,-1.144135,5.130249,26.98114,31.14769,28.31654,27.97351,10,0.0.0.0,10.139.104.221,4,0
2013-11-11 16:55:46.297,253,25.3,52.1703,4.456835,0,3.991971,282.3799,9,5,1384185320,0.365799,0.1282806,-1.177414,4.249996,30.3801,25.75354,16.02939,15.68636,10,0.0.0.0,10.139.104.221,4,0
2013-11-11 16:55:46.544,254,25.4,52.1703,4.456835,0,3.991971,282.3799,9,5,1384185320,0.2870331,0.1594086,-1.364731,6.890751,27.09078,30.11477,6.511038,6.168009,10,0.0.0.0,10.139.104.221,4,0
2013-11-11 16:55:46.786,255,25.5,52.1703,4.456835,0,3.991971,282.3799,9,5,1384185320,0.3072662,0.05018616,-1.512344,6.670689,19.635,35.73845,264.5906,264.2476,10,0.0.0.0,10.139.104.221,4,0
2013-11-11 16:55:47.110,256,25.6,52.1703,4.456835,0,3.991971,282.3799,9,5,1384185320,0.2795258,-0.08724976,-1.212234,2.489498,10.97314,40.32921,263.6863,263.3433,10,0.0.0.0,10.139.104.221,4,0
2013-11-11 16:55:47.250,257,25.7,52.1703,4.456835,0,3.991971,282.3799,9,5,1384185320,0.2734833,-0.02488708,-1.026474,0.5639458,4.887905,44.17398,264.9695,264.6264,10,0.0.0.0,10.139.104.221,4,0
2013-11-11 16:55:47.390,258,25.8,52.1703,4.456835,0,3.991971,282.3799,9,5,1384185320,0.2962036,-0.01860046,-1.039047,1.55423,3.901109,44.86259,265.5605,265.2174,10,0.0.0.0,10.139.104.221,4,0
2013-11-11 16:55:47.514,259,25.9,52.1703,4.456835,0,3.991971,282.3799,9,5,1384185320,0.2867584,0.2374115,-1.062149,4.910183,9.767058,42.62459,262.1194,261.7764,10,0.0.0.0,10.139.104.221,4,0
2013-11-11 16:55:47.663,260,26,52.1703,4.456835,0,3.991971,282.3799,9,5,1384185320,0.3535156,0.0358429,-0.9416046,6.120529,16.78427,39.18152,264.0758,263.7328,10,0.0.0.0,10.139.104.221,4,0
2013-11-11 16:55:47.795,261,26.1,52.17031,4.456754,0,4.150787,283.1035,9,5,1384185321,0.4787903,-0.2893372,-0.5303802,5.295296,21.99235,33.95953,181.7723,181.4292,10,0.0.0.0,10.139.104.221,4,0
2013-11-11 16:55:47.898,262,26.2,52.17031,4.456754,0,4.150787,283.1035,9,5,1384185321,0.4714966,-0.1516571,-0.4499664,5.07523,25.61059,30.28691,10.57084,10.22781,10,0.0.0.0,10.139.104.221,4,0
2013-11-11 16:55:48.174,263,26.3,52.17031,4.456754,0,4.150787,283.1035,9,5,1384185321,0.4372559,-0.1687469,-0.3614655,5.845451,27.69382,26.49953,11.14249,10.79946,10,0.0.0.0,10.139.104.221,4,0
2013-11-11 16:55:48.299,264,26.4,52.17031,4.456754,0,4.150787,283.1035,9,5,1384185321,0.3678741,-0.1329346,-0.3374939,5.350307,29.83188,27.81938,10.87677,10.53374,10,0.0.0.0,10.139.104.221,4,0
2013-11-11 16:55:48.436,265,26.5,52.17031,4.456754,0,4.150787,283.1035,9,5,1384185321,0.286499,-0.3124542,-0.3723907,5.570374,32.35368,25.06492,14.47636,14.13333,10,0.0.0.0,10.139.104.221,4,0
2013-11-11 16:55:48.683,266,26.6,52.17031,4.456754,0,4.150787,283.1035,9,5,1384185321,0.286499,-0.3124542,-0.3723907,5.185265,32.40851,24.66323,14.22113,13.8781,10,0.0.0.0,10.139.104.221,4,0
2013-11-11 16:55:48.786,267,26.7,52.17031,4.456754,0,4.150787,283.1035,9,5,1384185321,0.3451385,-0.2241974,-0.3178711,4.470058,32.1344,24.95016,13.47882,13.1358,10,0.0.0.0,10.139.104.221,4,0
2013-11-11 16:55:48.938,268,26.8,52.17031,4.456754,0,4.150787,283.1035,9,5,1384185321,0.3659058,-0.359726,-0.4576263,4.690125,32.35368,24.26154,12.23095,11.88792,10,0.0.0.0,10.139.104.221,4,0
2013-11-11 16:55:49.170,269,26.9,52.17031,4.456754,0,4.150787,283.1035,9,5,1384185321,0.3847351,-0.2738037,-0.4227295,3.974918,34.93031,21.56446,17.84939,17.50636,10,0.0.0.0,10.139.104.221,4,0
2013-11-11 16:55:49.302,270,27,52.17031,4.456754,0,4.150787,283.1035,9,5,1384185321,0.5459137,-0.5391846,-0.670639,2.984634,36.24604,20.41677,20.36814,20.02511,10,0.0.0.0,10.139.104.221,4,0
2013-11-11 16:55:49.518,271,27.1,52.17031,4.456754,0,4.150787,283.1035,9,5,1384185321,0.6964722,-0.443634,-0.7968597,2.324448,36.79426,20.41677,19.94054,19.59751,10,0.0.0.0,10.139.104.221,4,0
2013-11-11 16:55:49.738,272,27.2,52.17032,4.456679,0,4.282572,283.2607,9,5,1384185322,0.4867401,-0.3172455,-0.6831207,1.664261,37.67141,20.18724,22.02163,21.6786,10,0.0.0.0,10.139.104.221,4,0
2013-11-11 16:55:49.897,273,27.3,52.17032,4.456679,0,4.282572,283.2607,9,5,1384185322,0.6240997,-0.3467865,-0.8383026,1.389183,37.3973,20.12985,22.0796,21.73657,10,0.0.0.0,10.139.104.221,4,0
2013-11-11 16:55:50.186,274,27.4,52.17032,4.456679,0,4.282572,283.2607,9,5,1384185322,0.6812592,-0.4255371,-1.099747,1.169117,37.61659,18.86739,23.56367,23.22065,10,0.0.0.0,10.139.104.221,4,0
2013-11-11 16:55:50.315,275,27.5,52.17032,4.456679,0,4.282572,283.2607,9,5,1384185322,0.7081757,-0.223938,-1.116714,1.169117,37.06837,18.86739,23.0524,22.70937,10,0.0.0.0,10.139.104.221,4,0
2013-11-11 16:55:50.448,276,27.6,52.17032,4.456679,0,4.282572,283.2607,9,5,1384185322,0.5656738,-0.16922,-0.998642,-0.04122925,37.06837,19.2117,25.20026,24.85723,10,0.0.0.0,10.139.104.221,4,0
2013-11-11 16:55:50.565,277,27.7,52.17032,4.456679,0,4.282572,283.2607,9,5,1384185322,0.5755005,-0.2653351,-0.7997589,-0.2062721,37.78106,19.9577,24.74962,24.40659,10,0.0.0.0,10.139.104.221,4,0
2013-11-11 16:55:50.825,278,27.8,52.17032,4.456679,0,4.282572,283.2607,9,5,1384185322,0.5108643,-0.4005432,-0.7626648,1.719276,38.16481,18.63786,23.4284,23.08537,10,0.0.0.0,10.139.104.221,4,0
2013-11-11 16:55:51.262,279,27.9,52.17033,4.456601,0,4.403022,283.567,9,5,1384185323,0.5543823,-0.1038513,-0.9307404,2.819588,36.6298,19.90031,16.8833,16.54027,10,0.0.0.0,10.139.104.221,4,0
2013-11-11 16:55:51.632,280,28,52.17033,4.456601,0,4.403022,283.567,9,5,1384185323,0.4494019,-0.3076324,-0.6725922,1.49921,36.41051,20.58893,19.53468,19.19165,10,0.0.0.0,10.139.104.221,4,0
2013-11-11 16:55:52.249,281,28.1,52.17033,4.456601,0,4.403022,283.567,9,5,1384185323,0.4684448,-0.2341614,-0.8314056,2.379463,37.94552,18.17878,22.15816,21.81513,10,0.0.0.0,10.139.104.221,4,0
2013-11-11 16:55:52.562,282,28.2,52.17033,4.456601,0,4.403022,283.567,9,5,1384185323,0.4684448,-0.2341614,-0.8314056,1.114105,37.12319,18.58047,22.22594,21.88291,10,0.0.0.0,10.139.104.221,4,0
2013-11-11 16:55:52.720,283,28.3,52.17033,4.456601,0,4.403022,283.567,9,5,1384185323,0.3872833,-0.199173,-1.13945,0.8390274,37.50695,18.17878,25.52061,25.17759,10,0.0.0.0,10.139.104.221,4,0
2013-11-11 16:55:52.894,284,28.4,52.17033,4.456601,0,4.403022,283.567,9,5,1384185323,0.3952179,-0.1589508,-0.9954529,1.774288,37.78106,18.81001,24.38776,24.04473,10,0.0.0.0,10.139.104.221,4,0
2013-11-11 16:55:53.166,285,28.5,52.17034,4.456531,0,4.477776,284.2446,9,5,1384185324,0.3982849,-0.2968292,-0.780899,2.049366,37.83588,20.12985,23.67097,23.32794,10,0.0.0.0,10.139.104.221,4,0
2013-11-11 16:55:53.304,286,28.6,52.17034,4.456531,0,4.477776,284.2446,9,5,1384185324,0.3753662,-0.3849945,-0.5276184,1.279152,37.61659,20.12985,23.59531,23.25228,10,0.0.0.0,10.139.104.221,4,0
2013-11-11 16:55:53.447,287,28.7,52.17034,4.456531,0,4.477776,284.2446,9,5,1384185324,0.4047241,-0.3198242,-0.8236542,1.49921,37.72623,19.09693,23.63398,23.29095,10,0.0.0.0,10.139.104.221,4,0
2013-11-11 16:55:53.577,288,28.8,52.17034,4.456531,0,4.477776,284.2446,9,5,1384185324,0.3942719,-0.2915649,-0.9649353,2.379463,37.72623,18.98216,23.55152,23.20849,10,0.0.0.0,10.139.104.221,4,0
2013-11-11 16:55:53.759,289,28.9,52.17034,4.456531,0,4.477776,284.2446,9,5,1384185324,0.4603729,-0.447998,-0.7179565,2.489498,37.61659,19.55601,23.43521,23.09218,10,0.0.0.0,10.139.104.221,4,0
2013-11-11 16:55:53.902,290,29,52.17034,4.456531,0,4.477776,284.2446,9,5,1384185324,0.544281,-0.6546478,-0.5827179,1.224133,37.01355,19.38385,23.32343,22.9804,10,0.0.0.0,10.139.104.221,4,0
2013-11-11 16:55:54.201,291,29.1,52.17034,4.456531,0,4.477776,284.2446,9,5,1384185324,0.585907,-0.7110443,-0.6758728,2.159401,38.3841,18.17878,25.628,25.28497,10,0.0.0.0,10.139.104.221,4,0
2013-11-11 16:55:54.351,292,29.2,52.17034,4.456531,0,4.477776,284.2446,9,5,1384185324,0.4337158,-0.6436462,-0.5812378,3.369747,37.72623,20.01508,17.50886,17.16583,10,0.0.0.0,10.139.104.221,4,0
2013-11-11 16:55:54.529,293,29.3,52.17034,4.456531,0,4.477776,284.2446,9,5,1384185324,0.1941071,-0.5774994,-0.4937592,3.149681,35.75264,20.58893,17.3757,17.03267,10,0.0.0.0,10.139.104.221,4,0
2013-11-11 16:55:54.685,294,29.4,52.17034,4.456531,0,4.477776,284.2446,9,5,1384185324,0.2763824,-0.4640045,-1.165512,4.249996,34.10799,24.49108,13.9911,13.64807,10,0.0.0.0,10.139.104.221,4,0
2013-11-11 16:55:54.815,295,29.5,52.17036,4.456458,0,4.53978,285.1826,9,5,1384185325,0.3996735,-0.5153198,-0.8397064,4.415047,29.77706,27.41769,11.64336,11.30033,10,0.0.0.0,10.139.104.221,4,0
2013-11-11 16:55:54.918,296,29.6,52.17036,4.456458,0,4.53978,285.1826,9,5,1384185325,0.4024658,-0.3890686,-1.029877,4.084949,27.25525,29.254,13.04505,12.70203,10,0.0.0.0,10.139.104.221,4,0
2013-11-11 16:55:55.176,297,29.7,52.17036,4.456458,0,4.53978,285.1826,9,5,1384185325,0.3181458,-0.2657928,-0.876709,5.460342,24.8979,30.68861,5.346001,5.002972,10,0.0.0.0,10.139.104.221,4,0
2013-11-11 16:55:55.329,298,29.8,52.17036,4.456458,0,4.53978,285.1826,9,5,1384185325,0.5756531,-0.3002014,-0.6555634,4.635105,23.19843,32.69707,3.248553,2.905524,10,0.0.0.0,10.139.104.221,4,0
2013-11-11 16:55:55.516,299,29.9,52.17036,4.456458,0,4.53978,285.1826,9,5,1384185325,0.5756531,-0.3002014,-0.6555634,5.295296,23.19843,32.23799,4.164533,3.821504,10,0.0.0.0,10.139.104.221,4,0
2013-11-11 16:55:55.637,300,30,52.17036,4.456458,0,4.53978,285.1826,9,5,1384185325,0.2962952,-0.4828339,-1.47789,5.405327,24.29486,31.0903,6.567138,6.224109,10,0.0.0.0,10.139.104.221,4,0
2013-11-11 16:55:55.770,301,30.1,52.17036,4.456458,0,4.53978,285.1826,9,5,1384185325,0.4462891,-0.425766,-0.4483643,5.460342,24.45933,31.26245,6.45787,6.114841,10,0.0.0.0,10.139.104.221,4,0
2013-11-11 16:55:55.884,302,30.2,52.17036,4.456458,0,4.53978,285.1826,9,5,1384185325,0.2427216,0.02397156,-0.9858093,5.570374,24.1304,31.37722,3.449673,3.106645,10,0.0.0.0,10.139.104.221,4,0
2013-11-11 16:55:56.165,303,30.3,52.17036,4.456458,0,4.53978,285.1826,9,5,1384185325,0.6549683,-0.400528,-0.8769684,6.120529,23.69182,31.37722,1.660897,1.317869,10,0.0.0.0,10.139.104.221,4,0
2013-11-11 16:55:56.294,304,30.4,52.17036,4.456458,0,4.53978,285.1826,9,5,1384185325,0.375061,-0.3095551,-0.8344727,6.230564,24.24004,31.37722,1.564213,1.221184,10,0.0.0.0,10.139.104.221,4,0
2013-11-11 16:55:56.428,305,30.5,52.17037,4.456382,0,4.57638,284.8562,9,5,1384185326,0.2147675,-0.4120178,-0.6274872,5.405327,24.29486,32.23799,1.911277,1.568249,10,0.0.0.0,10.139.104.221,2,0
2013-11-11 16:55:56.561,306,30.6,52.17037,4.456382,0,4.57638,284.8562,9,5,1384185326,0.6465607,-0.387558,-0.9743958,4.580093,24.78826,32.52491,4.109815,3.766786,10,0.0.0.0,10.139.104.221,2,0
2013-11-11 16:55:56.662,307,30.7,52.17037,4.456382,0,4.57638,284.8562,9,5,1384185326,0.8019257,-0.541626,-0.9208069,5.07523,26.04916,30.86076,7.666625,7.323596,10,0.0.0.0,10.139.104.221,2,0
2013-11-11 16:55:56.785,308,30.8,52.17037,4.456382,0,4.57638,284.8562,9,5,1384185326,0.3132782,-0.3907623,-0.4373169,5.79044,25.8847,31.03291,4.970606,4.627577,10,0.0.0.0,10.139.104.221,2,0
2013-11-11 16:55:56.895,309,30.9,52.17037,4.456382,0,4.57638,284.8562,9,5,1384185326,0.5810394,-0.4174194,-0.6357727,5.570374,25.66541,31.37722,4.238846,3.895818,10,0.0.0.0,10.139.104.221,2,0
2013-11-11 16:55:57.110,310,31,52.17037,4.456382,0,4.57638,284.8562,9,5,1384185326,0.6894989,-0.4559326,-0.8766937,6.395607,26.3781,29.94261,4.83489,4.491862,10,0.0.0.0,10.139.104.221,2,0
2013-11-11 16:55:57.330,311,31.1,52.17037,4.456382,0,4.57638,284.8562,9,5,1384185326,0.1514435,-0.3031921,-0.8363647,6.560654,25.66541,31.14769,4.651508,4.30848,10,0.0.0.0,10.139.104.221,2,0
2013-11-11 16:55:57.444,312,31.2,52.17037,4.456382,0,4.57638,284.8562,9,5,1384185326,0.02430725,-0.4022217,-0.6116943,6.615673,26.26846,31.0903,4.288813,3.945784,10,0.0.0.0,10.139.104.221,2,0
2013-11-11 16:55:57.535,313,31.3,52.17037,4.456382,0,4.57638,284.8562,9,5,1384185326,0.5359192,-0.6772461,-0.7219238,6.285576,25.72024,30.97553,4.178118,3.835089,10,0.0.0.0,10.139.104.221,2,0
2013-11-11 16:55:57.668,314,31.4,52.17037,4.456382,0,4.57638,284.8562,9,5,1384185326,0.2731934,-0.2168579,-0.6404114,7.055798,25.17202,30.40169,1.960006,1.616977,10,0.0.0.0,10.139.104.221,2,0
2013-11-11 16:55:57.800,315,31.5,52.17038,4.45632,0,4.503999,287.9881,9,5,1384185327,0.2731934,-0.2168579,-0.6404114,7.771,25.11719,31.26245,1.602197,1.259169,10,0.0.0.0,10.139.104.221,2,0
2013-11-11 16:55:57.919,316,31.6,52.17038,4.45632,0,4.503999,287.9881,9,5,1384185327,0.7245026,-0.5338135,-0.6582794,6.230564,25.22684,31.60676,1.184631,0.8416018,10,0.0.0.0,10.139.104.221,2,0
2013-11-11 16:55:58.153,317,31.7,52.17038,4.45632,0,4.503999,287.9881,9,5,1384185327,0.6989594,-0.4915161,-0.8999176,5.845451,25.17201,31.43461,1.040084,0.6970551,10,0.0.0.0,10.139.104.221,2,0
2013-11-11 16:55:58.261,318,31.8,52.17038,4.45632,0,4.503999,287.9881,9,5,1384185327,1.033905,-1.010223,-0.6772156,7.220844,25.8847,30.3443,0.8823005,0.5392717,10,0.0.0.0,10.139.104.221,2,0
2013-11-11 16:55:58.374,319,31.9,52.17038,4.45632,0,4.503999,287.9881,9,5,1384185327,0.1778107,-0.2723541,-0.7185364,6.7257,25.3913,30.51645,0.7620271,0.4189983,10,0.0.0.0,10.139.104.221,2,0
2013-11-11 16:55:58.471,320,32,52.17038,4.45632,0,4.503999,287.9881,9,5,1384185327,-0.04605103,-0.01609802,-0.4289856,6.340595,25.55577,30.57384,0.7140387,0.3710099,10,0.0.0.0,10.139.104.221,2,0
2013-11-11 16:55:58.583,321,32.1,52.17038,4.45632,0,4.503999,287.9881,9,5,1384185327,0.7164001,-0.1702271,-0.8890076,7.055798,25.93952,30.86076,0.6265072,0.2834783,10,0.0.0.0,10.139.104.221,2,0
2013-11-11 16:55:58.742,322,32.2,52.17038,4.45632,0,4.503999,287.9881,9,5,1384185327,0.2746277,-0.1142273,-0.4187012,8.321159,25.99434,30.91815,0.3683181,0.02528937,10,0.0.0.0,10.139.104.221,2,0
2013-11-11 16:55:58.869,323,32.3,52.17038,4.45632,0,4.503999,287.9881,9,5,1384185327,0.8830872,-0.5344543,-1.027618,7.991066,25.99434,29.99999,359.8439,359.5009,10,0.0.0.0,10.139.104.221,2,0
2013-11-11 16:55:59.105,324,32.4,52.17038,4.45632,0,4.503999,287.9881,9,5,1384185327,0.6553955,-0.2893829,-0.4712677,8.486206,26.81667,29.02446,355.3568,355.0138,10,0.0.0.0,10.139.104.221,2,0
2013-11-11 16:55:59.401,325,32.5,52.17038,4.45632,0,4.503999,287.9881,9,5,1384185327,0.2789764,-0.2031403,-0.5148468,10.30172,27.41971,27.36031,352.5664,352.2234,10,0.0.0.0,10.139.104.221,2,0
2013-11-11 16:55:59.637,326,32.6,52.17039,4.456272,0,4.339779,281.9041,9,5,1384185328,0.4124908,-0.2437134,-0.6047516,10.68683,26.70703,28.68015,347.1668,346.8238,10,0.0.0.0,10.139.104.221,2,0
2013-11-11 16:55:59.815,327,32.7,52.17039,4.456272,0,4.339779,281.9041,9,5,1384185328,0.2702332,-0.05873108,-0.5600433,10.96191,26.65221,27.13077,346.6242,346.2812,10,0.0.0.0,10.139.104.221,2,0
2013-11-11 16:55:59.921,328,32.8,52.17039,4.456272,0,4.339779,281.9041,9,5,1384185328,0.5681915,-0.8029938,-0.5063019,12.3373,26.48774,26.72907,340.8896,340.5466,10,0.0.0.0,10.139.104.221,2,0
2013-11-11 16:56:00.183,329,32.9,52.17039,4.456272,0,4.339779,281.9041,9,5,1384185328,0.6075897,-0.316803,-0.9085388,15.03307,28.84509,26.78646,331.2202,330.8771,10,0.0.0.0,10.139.104.221,2,0
