time,timestamp,recordtime,lat,long,alt,speed,course,verticalAccuracy,horizontalAccuracy,locTimeStamp,accelerationX,accelerationY,accelerationZ,HeadingX,HeadingY,HeadingZ,TrueHeading,MagneticHeading,HeadingAccuracy,en0,pdp_ip0,DeviceOrientation,Event
2013-11-11 16:48:54.160,1,0.1,52.1702,4.457904,0,0,353.0075,10.09982,10,1384184925,0.03398132,-0.4839783,-0.8801575,-5.961514,-4.246438,-42.14226,26.63675,26.29372,10,0.0.0.0,10.139.104.221,5,0
2013-11-11 16:48:54.305,2,0.2,52.1702,4.457904,0,0,353.0075,10.09982,10,1384184925,0.03779602,-0.482132,-0.8840637,-4.970421,-3.47873,-42.2571,22.70021,22.35718,10,0.0.0.0,10.139.104.221,5,0
2013-11-11 16:48:54.439,3,0.3,52.1702,4.457904,0,0,353.0075,9.5,5,1384184926,0.04360962,-0.4862518,-0.8947144,-4.144508,-0.9014158,-42.31451,18.48186,18.13883,10,0.0.0.0,10.139.104.221,5,0
2013-11-11 16:48:54.529,4,0.4,52.1702,4.457904,0,0,353.0075,9.5,5,1384184926,0.04148865,-0.4782715,-0.8801422,-5.576088,0.7436788,-42.08484,21.51755,21.17452,10,0.0.0.0,10.139.104.221,5,0
2013-11-11 16:48:54.820,5,0.5,52.1702,4.457904,0,0,353.0075,9.5,5,1384184926,0.03689575,-0.4850311,-0.8820953,-6.677303,0.6340072,-41.97,22.78814,22.44511,10,0.0.0.0,10.139.104.221,5,0
2013-11-11 16:48:55.216,6,0.6,52.1702,4.457904,0,0,353.0075,9.5,5,1384184926,0.0415802,-0.4831238,-0.877243,-4.52993,-1.06592,-43.29062,18.80858,18.46555,10,0.0.0.0,10.139.104.221,5,0
2013-11-11 16:48:55.326,7,0.7,52.1702,4.457904,0,0,353.0075,9.5,5,1384184926,0.0415802,-0.4831238,-0.877243,-3.593899,-0.6820664,-43.2332,16.31894,15.97591,10,0.0.0.0,10.139.104.221,5,0
2013-11-11 16:48:55.413,8,0.8,52.1702,4.457904,0,0,353.0075,9.5,5,1384184926,0.04829407,-0.4871368,-0.873291,-5.025478,-1.778799,-43.00352,17.69701,17.35398,10,0.0.0.0,10.139.104.221,5,0
2013-11-11 16:48:55.897,9,0.9,52.1702,4.457904,0,0,353.0075,9.5,5,1384184926,0.05026245,-0.4872437,-0.8830109,-5.08054,-1.504616,-42.37193,15.46852,15.12549,10,0.0.0.0,10.139.104.221,5,0
2013-11-11 16:48:56.164,10,1,52.1702,4.457904,0,0,353.0075,9.5,5,1384184926,0.04347229,-0.4831848,-0.8781891,-4.695118,-2.107821,-43.34804,14.74778,14.40475,10,0.0.0.0,10.139.104.221,5,0
2013-11-11 16:48:56.262,11,1.1,52.1702,4.457904,0,0,353.0075,9.5,5,1384184926,0.04544067,-0.4842682,-0.8869324,-5.08054,-1.943306,-43.29062,16.61019,16.26716,10,0.0.0.0,10.139.104.221,5,0
2013-11-11 16:48:56.383,12,1.2,52.1702,4.457904,0,0,353.0075,9.5,5,1384184927,0.04832458,-0.4862823,-0.8869171,-4.52993,-1.175599,-43.74997,14.53223,14.1892,10,0.0.0.0,10.139.104.221,5,0
2013-11-11 16:48:56.478,13,1.3,52.1702,4.457904,0,0,353.0075,9.5,5,1384184927,0.04734802,-0.4842987,-0.8859406,-3.979321,-1.394945,-43.52029,12.79254,12.44951,10,0.0.0.0,10.139.104.221,5,0
2013-11-11 16:48:56.577,14,1.4,52.1702,4.457904,0,0,353.0075,9.5,5,1384184927,0.0426178,-0.4833221,-0.8957214,-4.695118,-1.888474,-43.69254,12.84686,12.50383,10,0.0.0.0,10.139.104.221,5,0
2013-11-11 16:48:56.685,15,1.5,52.1702,4.457904,0,0,353.0075,9.5,5,1384184927,0.03868103,-0.4811401,-0.8791809,-9.650593,-3.752915,-42.88869,22.93534,22.59231,10,0.0.0.0,10.139.104.221,1,0
2013-11-11 16:48:56.768,16,1.6,52.1702,4.457904,0,0,353.0075,9.5,5,1384184927,0.04644775,-0.4890442,-0.8722992,-11.08217,-3.094879,-43.2332,26.86964,26.52661,10,0.0.0.0,10.139.104.221,1,0
2013-11-11 16:48:56.880,17,1.7,52.1702,4.457904,0,0,353.0075,9.5,5,1384184927,0.04933167,-0.4910431,-0.8703613,-12.4587,-3.04004,-42.83128,28.86259,28.51956,10,0.0.0.0,10.139.104.221,1,0
2013-11-11 16:48:56.971,18,1.8,52.1702,4.457904,0,0,353.0075,9.5,5,1384184927,0.04933167,-0.4910431,-0.8703613,-13.11943,-3.917423,-41.68291,34.89952,34.5565,10,0.0.0.0,10.139.104.221,1,0
2013-11-11 16:48:57.168,19,1.9,52.1702,4.457904,0,0,353.0075,9.5,5,1384184927,0.04829407,-0.4862213,-0.8810883,-11.30242,-0.4627256,-43.11836,29.58279,29.23976,10,0.0.0.0,10.139.104.221,1,0
2013-11-11 16:48:57.270,20,2,52.1702,4.457904,0,0,353.0075,9.5,5,1384184927,0.04823303,-0.4823303,-0.8830414,-6.897549,1.95008,-45.41509,20.61104,20.26801,10,0.0.0.0,10.139.104.221,1,0
2013-11-11 16:48:57.310,21,2.1,52.1702,4.457904,0,0,353.0075,9.5,5,1384184927,0.04823303,-0.4823303,-0.8830414,-4.52993,2.772628,-45.58734,18.26736,17.92433,10,0.0.0.0,10.139.104.221,1,0
2013-11-11 16:48:57.424,22,2.2,52.1702,4.457904,0,0,353.0075,9.5,5,1384184927,0.04916382,-0.4832611,-0.8752441,-4.199566,3.101646,-45.35767,17.91407,17.57104,10,0.0.0.0,10.139.104.221,1,0
2013-11-11 16:48:57.513,23,2.3,52.1702,4.457904,0,0,353.0075,9.5,5,1384184928,0.04734802,-0.4852142,-0.8791351,-3.869202,3.540333,-45.58734,17.69391,17.35088,10,0.0.0.0,10.139.104.221,1,0
2013-11-11 16:48:57.609,24,2.4,52.1702,4.457904,0,0,353.0075,9.5,5,1384184928,0.0528717,-0.4775085,-0.8791504,-2.162315,2.059755,-46.10411,13.05892,12.71589,10,0.0.0.0,10.139.104.221,1,0
2013-11-11 16:48:57.761,25,2.5,52.1702,4.457904,0,0,353.0075,9.5,5,1384184928,0.05783081,-0.4882812,-0.8712921,-5.025478,0.1953139,-46.10411,13.47435,13.13132,10,0.0.0.0,10.139.104.221,1,0
2013-11-11 16:48:57.853,26,2.6,52.1702,4.457904,0,0,353.0075,9.5,5,1384184928,0.05783081,-0.4882812,-0.8712921,-5.796333,0.195317,-45.98927,13.44518,13.10215,10,0.0.0.0,10.139.104.221,1,0
2013-11-11 16:48:57.947,27,2.7,52.1702,4.457904,0,0,353.0075,9.5,5,1384184928,0.05593872,-0.488266,-0.8742371,-5.025478,0.6340103,-46.90797,13.19503,12.852,10,0.0.0.0,10.139.104.221,1,0
2013-11-11 16:48:58.163,28,2.8,52.1702,4.457904,0,0,353.0075,9.5,5,1384184928,0.04440308,-0.4841156,-0.8713531,-4.419811,-0.407887,-46.85055,11.5185,11.17547,10,0.0.0.0,10.139.104.221,1,0
2013-11-11 16:48:58.252,29,2.9,52.1702,4.457904,0,0,353.0075,9.5,5,1384184928,0.04347229,-0.4822235,-0.880127,-2.217377,-3.369061,-47.19506,9.837378,9.494349,10,0.0.0.0,10.139.104.221,1,0
2013-11-11 16:48:58.339,30,3,52.1702,4.457904,0,0,353.0075,9.5,5,1384184928,0.05122375,-0.4882507,-0.8830109,-1.666767,-4.685134,-47.76924,8.404991,8.061962,10,0.0.0.0,10.139.104.221,1,0
2013-11-11 16:48:58.471,31,3.1,52.1702,4.457904,0,0,353.0075,9.5,5,1384184928,0.05500793,-0.4873505,-0.8829956,-1.281342,-4.739969,-47.36731,7.004652,6.661623,10,0.0.0.0,10.139.104.221,1,0
2013-11-11 16:48:58.564,32,3.2,52.1702,4.457904,0,0,353.0075,9.5,5,1384184928,0.05125427,-0.4902039,-0.8800659,-2.107254,-4.246441,-47.30989,7.78849,7.445461,10,0.0.0.0,10.139.104.221,1,0
2013-11-11 16:48:58.693,33,3.3,52.1702,4.457904,0,0,353.0075,9.5,5,1384184928,0.05596924,-0.4892578,-0.8742218,-2.823044,-4.08193,-47.59698,8.17345,7.830422,10,0.0.0.0,10.139.104.221,1,0
2013-11-11 16:48:58.980,34,3.4,52.1702,4.457904,0,0,353.0075,9.5,5,1384184928,0.06069946,-0.4883728,-0.8761597,-3.704018,-4.849642,-47.71181,8.975706,8.632677,10,0.0.0.0,10.139.104.221,1,0
2013-11-11 16:48:59.297,35,3.5,52.1702,4.457904,0,0,353.0075,9.5,5,1384184928,0.06358337,-0.4894562,-0.8780823,-3.593899,-4.410952,-47.36731,11.21299,10.86996,10,0.0.0.0,10.139.104.221,1,0
2013-11-11 16:48:59.479,36,3.6,52.17021,4.457911,0,0.09499463,44.1971,9.5,5,1384184929,0.06544495,-0.4884491,-0.8741913,-3.704018,-3.533563,-47.25247,15.60348,15.26045,10,0.0.0.0,10.139.104.221,1,0
2013-11-11 16:48:59.615,37,3.7,52.17021,4.457911,0,0.09499463,44.1971,9.5,5,1384184929,0.06558228,-0.4915009,-0.885849,-1.556644,-3.369054,-48.80276,12.77083,12.4278,10,0.0.0.0,10.139.104.221,1,0
2013-11-11 16:48:59.712,38,3.8,52.17021,4.457911,0,0.09499463,44.1971,9.5,5,1384184929,0.04824829,-0.485199,-0.8752289,-1.831951,-2.9852,-48.97501,11.24454,10.90151,10,0.0.0.0,10.139.104.221,1,0
2013-11-11 16:48:59.818,39,3.9,52.17021,4.457911,0,0.09499463,44.1971,9.5,5,1384184929,0.04824829,-0.485199,-0.8752289,-1.611706,-2.107818,-48.05633,10.9898,10.64677,10,0.0.0.0,10.139.104.221,1,0
2013-11-11 16:48:59.926,40,4,52.17021,4.457911,0,0.09499463,44.1971,9.5,5,1384184929,0.02111816,-0.5070038,-0.860672,-2.767986,-2.052981,-47.6544,11.8674,11.52437,10,0.0.0.0,10.139.104.221,1,0
2013-11-11 16:49:00.132,41,4.1,52.17021,4.457911,0,0.09499463,44.1971,9.5,5,1384184929,0.02111816,-0.5070038,-0.860672,-5.851395,0.3598216,-48.11375,11.48958,11.14655,10,0.0.0.0,10.139.104.221,1,0
2013-11-11 16:49:00.260,42,4.2,52.17021,4.457911,0,0.09499463,44.1971,9.5,5,1384184929,0.02110291,-0.5219574,-0.7846985,-8.163944,1.785573,-47.88407,9.471369,9.12834,10,0.0.0.0,10.139.104.221,1,0
2013-11-11 16:49:00.355,43,4.3,52.17021,4.457911,0,0.09499463,44.1971,9.5,5,1384184929,0.03015137,-0.4997406,-0.7944641,-7.723461,1.566226,-47.88407,4.833934,4.490905,10,0.0.0.0,10.139.104.221,1,0
2013-11-11 16:49:00.462,44,4.4,52.17021,4.457911,0,0.09499463,44.1971,9.5,5,1384184929,0.02635193,-0.4828491,-0.8782501,-5.906452,2.169424,-48.86018,1.794939,1.45191,10,0.0.0.0,10.139.104.221,1,0
2013-11-11 16:49:00.558,45,4.5,52.17021,4.457911,0,0.09499463,44.1971,9.5,5,1384184929,0.02635193,-0.4828491,-0.8782501,-4.915359,2.388767,-49.31953,355.2364,354.8934,10,0.0.0.0,10.139.104.221,1,0
2013-11-11 16:49:00.632,46,4.6,52.17022,4.45792,0,0.1924199,28.75108,9.5,5,1384184930,0.007171631,-0.4493561,-1.000107,-3.869202,2.66295,-49.37695,351.7683,351.4253,10,0.0.0.0,10.139.104.221,1,0
2013-11-11 16:49:00.741,47,4.7,52.17022,4.45792,0,0.1924199,28.75108,9.5,5,1384184930,-0.00831604,-0.4728088,-1.035156,-0.7857933,4.308042,-49.95113,345.0851,344.742,10,0.0.0.0,10.139.104.221,1,0
2013-11-11 16:49:00.843,48,4.8,52.17022,4.45792,0,0.1924199,28.75108,9.5,5,1384184930,-0.005905151,-0.5673065,-0.8869019,0.5907288,5.569276,-49.66404,340.0261,339.683,10,0.0.0.0,10.139.104.221,1,0
2013-11-11 16:49:00.960,49,4.9,52.17022,4.45792,0,0.1924199,28.75108,9.5,5,1384184930,0.02867126,-0.6079407,-0.7659302,8.519493,7.43372,-50.23822,338.376,338.033,10,0.0.0.0,10.139.104.221,1,0
2013-11-11 16:49:01.154,50,5,52.17022,4.45792,0,0.1924199,28.75108,9.5,5,1384184930,0.02867126,-0.6079407,-0.7659302,12.92436,6.995024,-50.8124,335.2546,334.9116,10,0.0.0.0,10.139.104.221,1,0
2013-11-11 16:49:01.265,51,5.1,52.17022,4.45792,0,0.1924199,28.75108,9.5,5,1384184930,0.03451538,-0.5784454,-0.734848,17.05393,6.391823,-49.83629,331.6693,331.3263,10,0.0.0.0,10.139.104.221,1,0
2013-11-11 16:49:01.356,52,5.2,52.17022,4.45792,0,0.1924199,28.75108,9.5,5,1384184930,0.03451538,-0.5784454,-0.734848,20.08228,6.227315,-48.05633,328.5949,328.2519,10,0.0.0.0,10.139.104.221,1,0
2013-11-11 16:49:01.429,53,5.3,52.17022,4.45792,0,0.1924199,28.75108,9.5,5,1384184930,0.02233887,-0.5384064,-0.7651825,23.88148,6.720844,-47.6544,325.0004,324.6573,10,0.0.0.0,10.139.104.221,1,0
2013-11-11 16:49:01.533,54,5.4,52.17022,4.45792,0,0.1924199,28.75108,9.5,5,1384184930,0.0004882812,-0.4800262,-0.8403931,33.51713,6.556331,-43.69254,319.4299,319.0869,10,0.0.0.0,10.139.104.221,1,0
2013-11-11 16:49:01.661,55,5.5,52.17022,4.45792,0,0.1924199,28.75108,9.5,5,1384184930,-0.002456665,-0.4732819,-0.8589172,35.6645,4.856403,-41.45325,315.0941,314.7511,10,0.0.0.0,10.139.104.221,1,0
2013-11-11 16:49:01.757,56,5.6,52.17022,4.45792,0,0.1924199,28.75108,9.5,5,1384184930,-0.00617981,-0.4696198,-0.8939972,37.922,2.388773,-38.86943,312.5138,312.1708,10,0.0.0.0,10.139.104.221,1,0
2013-11-11 16:49:01.835,57,5.7,52.17022,4.45792,0,0.1924199,28.75108,9.5,5,1384184930,-0.01359558,-0.479187,-0.8852386,39.40864,0.7985177,-38.58234,310.7653,310.4223,10,0.0.0.0,10.139.104.221,1,0
2013-11-11 16:49:01.958,58,5.8,52.17023,4.457922,0,0.4007247,29.52474,9.5,5,1384184931,-0.02235413,-0.522522,-0.8354797,43.53821,-0.1337044,-35.76884,301.2068,300.8638,10,0.0.0.0,10.139.104.221,1,0
2013-11-11 16:49:02.181,59,5.9,52.17023,4.457922,0,0.4007247,29.52474,9.5,5,1384184931,-0.02720642,-0.5680542,-0.7993774,44.41918,-0.9014192,-34.0463,299.8849,299.5419,10,0.0.0.0,10.139.104.221,1,0
2013-11-11 16:49:02.277,60,6,52.17023,4.457922,0,0.4007247,29.52474,9.5,5,1384184931,-0.02720642,-0.5680542,-0.7993774,44.69448,-0.6272335,-32.03667,297.7584,297.4153,10,0.0.0.0,10.139.104.221,6,0
2013-11-11 16:49:02.387,61,6.1,52.17023,4.457922,0,0.4007247,29.52474,9.5,5,1384184931,-0.04934692,-0.5904388,-0.8403015,45.5204,-0.9014158,-31.74957,296.7926,296.4496,10,0.0.0.0,10.139.104.221,6,0
2013-11-11 16:49:02.576,62,6.2,52.17023,4.457922,0,0.4007247,29.52474,9.5,5,1384184931,-0.04905701,-0.6040955,-0.8353882,45.85076,-7.591466,-30.60121,292.989,292.6459,10,0.0.0.0,10.139.104.221,6,0
2013-11-11 16:49:02.670,63,6.3,52.17023,4.457922,0,0.4007247,29.52474,9.5,5,1384184931,-0.05589294,-0.5970764,-0.831543,43.48315,-15.10407,-27.90256,285.006,284.663,10,0.0.0.0,10.139.104.221,6,0
2013-11-11 16:49:02.770,64,6.4,52.17023,4.457922,0,0.4007247,29.52474,9.5,5,1384184931,-0.07049561,-0.5793152,-0.8452759,38.41755,-20.69739,-26.18002,278.7949,278.4519,10,0.0.0.0,10.139.104.221,6,0
2013-11-11 16:49:02.868,65,6.5,52.17023,4.457922,0,0.4007247,29.52474,9.5,5,1384184931,-0.06771851,-0.5736084,-0.8560028,37.64669,-23.00052,-25.72067,275.9747,275.6317,10,0.0.0.0,10.139.104.221,6,0
2013-11-11 16:49:02.988,66,6.6,52.17023,4.457922,0,0.4007247,29.52474,9.5,5,1384184931,-0.07543945,-0.5657654,-0.8696747,35.88474,-26.40038,-25.26132,264.709,264.366,10,0.0.0.0,10.139.104.221,6,0
2013-11-11 16:49:03.169,67,6.7,52.17023,4.457922,0,0.4007247,29.52474,9.5,5,1384184931,-0.06420898,-0.5553436,-0.8803558,23.16568,-28.9777,-31.74957,252.037,251.694,10,0.0.0.0,10.139.104.221,6,0
2013-11-11 16:49:03.288,68,6.8,52.17023,4.457922,0,0.4007247,29.52474,9.5,5,1384184931,-0.04325867,-0.5595551,-0.8685913,-5.025478,-21.08124,-43.57771,231.1416,230.7986,10,0.0.0.0,10.139.104.221,1,0
2013-11-11 16:49:03.397,69,6.9,52.17023,4.457922,0,0,29.52474,9,10,1384184932,-0.0218811,-0.5449371,-0.8276367,-7.282978,-15.32341,-50.52531,228.1196,227.7766,10,0.0.0.0,10.139.104.221,1,0
2013-11-11 16:49:03.604,70,7,52.17023,4.457922,0,0,29.52474,9,10,1384184932,-0.03596497,-0.3881378,-0.8086395,5.381027,-10.38813,-52.59236,235.5697,235.2266,10,0.0.0.0,10.139.104.221,6,0
2013-11-11 16:49:03.726,71,7.1,52.17023,4.457922,0,0,29.52474,9,10,1384184932,-0.03596497,-0.3881378,-0.8086395,12.37375,-12.41708,-51.04207,236.2,235.857,10,0.0.0.0,10.139.104.221,6,0
2013-11-11 16:49:03.910,72,7.2,52.17023,4.457922,0,0,29.52474,9,10,1384184932,0.01332092,-0.2888184,-0.8505707,24.87257,-14.88472,-45.58734,238.8979,238.5549,10,0.0.0.0,10.139.104.221,6,0
2013-11-11 16:49:04.111,73,7.3,52.17023,4.457922,0,0,29.52474,9,10,1384184932,0.05168152,-0.2584229,-0.8631592,25.69848,-15.37825,-44.26673,240.0134,239.6703,10,0.0.0.0,10.139.104.221,6,0
2013-11-11 16:49:04.228,74,7.4,52.17023,4.457922,0,0,29.52474,9,10,1384184932,0.1157684,-0.2734985,-0.8735809,27.29525,-16.52982,-42.60161,239.2286,238.8856,10,0.0.0.0,10.139.104.221,6,0
2013-11-11 16:49:04.337,75,7.5,52.17023,4.457922,0,0,29.52474,9,10,1384184932,0.1696014,-0.2429504,-0.9454956,27.51549,-17.18785,-41.68291,238.4103,238.0673,10,0.0.0.0,10.139.104.221,1,0
2013-11-11 16:49:04.461,76,7.6,52.17023,4.457922,0,0,29.52474,9,10,1384184932,0.2245331,-0.2276459,-0.9696503,28.28634,-17.4072,-41.79775,238.8935,238.5504,10,0.0.0.0,10.139.104.221,1,0
2013-11-11 16:49:04.561,77,7.7,52.17023,4.457922,0,0,29.52474,9,10,1384184932,0.2362671,-0.2005005,-0.9687042,29.88311,-17.24269,-41.6255,239.6071,239.2641,10,0.0.0.0,10.139.104.221,1,0
2013-11-11 16:49:04.662,78,7.8,52.17023,4.457922,0,0,29.52474,9,10,1384184932,0.185379,-0.1798706,-0.9601898,29.55274,-16.47498,-41.51066,241.7,241.3569,10,0.0.0.0,10.139.104.221,6,0
2013-11-11 16:49:04.746,79,7.9,52.17023,4.457922,0,0,29.52474,9,10,1384184932,0.1691437,-0.1289673,-0.9876556,29.0572,-14.44603,-41.79775,240.5064,240.1634,10,0.0.0.0,10.139.104.221,6,0
2013-11-11 16:49:04.855,80,8,52.17023,4.457922,0,0,29.52474,9.05424,5,1384184933,0.1691437,-0.1289673,-0.9876556,32.30579,-10.77198,-41.97,241.991,241.6479,10,0.0.0.0,10.139.104.221,6,0
2013-11-11 16:49:04.955,81,8.1,52.17023,4.457922,0,0,29.52474,9.05424,5,1384184933,0.167984,-0.1136017,-1.01886,33.02158,-10.93649,-41.45325,244.9399,244.5969,10,0.0.0.0,10.139.104.221,6,0
2013-11-11 16:49:05.217,82,8.2,52.17023,4.457922,0,0,29.52474,9.05424,5,1384184933,0.1803589,-0.118515,-0.9954224,33.90256,-11.15584,-41.10873,245.4754,245.1324,10,0.0.0.0,10.139.104.221,6,0
2013-11-11 16:49:05.355,83,8.3,52.17023,4.457922,0,0,29.52474,9.05424,5,1384184933,0.192276,-0.1431122,-0.9875183,31.97542,-10.66231,-41.51066,245.4386,245.0956,10,0.0.0.0,10.139.104.221,6,0
2013-11-11 16:49:05.461,84,8.400001,52.17023,4.457922,0,0,29.52474,9.05424,5,1384184933,0.127121,-0.08300781,-0.9694519,31.47988,-11.26551,-42.02743,247.3579,247.0149,10,0.0.0.0,10.139.104.221,6,0
2013-11-11 16:49:05.553,85,8.5,52.17023,4.457922,0,0,29.52474,9.05424,5,1384184933,0.1040497,-0.07086182,-0.9715118,32.19567,-11.21067,-43.2332,248.9697,248.6266,10,0.0.0.0,10.139.104.221,6,0
2013-11-11 16:49:05.695,86,8.6,52.17023,4.457922,0,0,29.52474,9.05424,5,1384184933,0.143692,-0.1476746,-0.948761,31.53494,-11.64937,-41.6255,249.1947,248.8517,10,0.0.0.0,10.139.104.221,6,0
2013-11-11 16:49:05.881,87,8.7,52.17023,4.457922,0,0,29.52474,9.05424,5,1384184933,0.1550293,-0.2775574,-0.9143066,30.26854,-13.78799,-38.812,247.607,247.264,10,0.0.0.0,10.139.104.221,1,0
2013-11-11 16:49:06.109,88,8.8,52.17023,4.457922,0,0,29.52474,9.096504,5,1384184934,0.1409607,-0.2926331,-0.8831635,29.00214,-18.66843,-34.96499,245.7434,245.4004,10,0.0.0.0,10.139.104.221,1,0
2013-11-11 16:49:06.436,89,8.900001,52.17023,4.457922,0,0,29.52474,9.096504,5,1384184934,0.09991455,-0.1859589,-0.9585724,29.16732,-19.16196,-34.33339,243.7454,243.4024,10,0.0.0.0,10.139.104.221,1,0
2013-11-11 16:49:06.570,90,9,52.17023,4.457922,0,0,29.52474,9.096504,5,1384184934,0.1313477,-0.1296539,-1.039398,30.48878,-19.38131,-34.21855,245.4877,245.1447,10,0.0.0.0,10.139.104.221,1,0
2013-11-11 16:49:06.654,91,9.1,52.17023,4.457922,0,0,29.52474,9.096504,5,1384184934,0.1092377,-0.1100922,-1.08432,31.81024,-20.91674,-33.87405,244.247,243.904,10,0.0.0.0,10.139.104.221,1,0
2013-11-11 16:49:07.332,92,9.2,52.17023,4.457922,0,0,29.52474,9.096504,5,1384184934,0.1291351,-0.1439362,-1.109467,31.47988,-25.63268,-27.21354,246.4013,246.0583,10,0.0.0.0,10.139.104.221,1,0
2013-11-11 16:49:07.537,93,9.3,52.17023,4.457922,0,0,29.52474,9.096504,5,1384184934,0.1468201,-0.2145081,-1.092667,40.39973,-23.76823,-13.20351,243.4824,243.1394,10,0.0.0.0,10.139.104.221,1,0
2013-11-11 16:49:08.053,94,9.400001,52.17023,4.457922,0,0,29.52474,9.096504,5,1384184934,0.1468201,-0.2145081,-1.092667,41.17059,-24.20692,-7.806206,241.1466,240.8036,10,0.0.0.0,10.139.104.221,1,0
2013-11-11 16:49:08.346,95,9.5,52.17023,4.457922,0,0,29.52474,9.113661,5,1384184935,0.1289368,-0.223877,-1.088806,36.43535,-31.99371,6.088989,225.1129,224.7699,10,0.0.0.0,10.139.104.221,1,0
2013-11-11 16:49:08.483,96,9.6,52.17023,4.457922,0,0,29.52474,9.113661,5,1384184935,0.06494141,-0.2305298,-0.9926758,29.00214,-37.20317,13.7256,210.0588,209.7157,10,0.0.0.0,10.139.104.221,6,0
2013-11-11 16:49:08.567,97,9.7,52.17023,4.457922,0,0,29.52474,9.113661,5,1384184935,0.04431152,-0.27742,-1.034485,27.95598,-38.02571,13.78301,209.0797,208.7366,10,0.0.0.0,10.139.104.221,6,0
2013-11-11 16:49:08.738,98,9.8,52.17023,4.457922,0,0,29.52474,9.113661,5,1384184935,0.1127014,-0.2448883,-0.9632416,26.63452,-39.23212,12.51982,208.4647,208.1217,10,0.0.0.0,10.139.104.221,6,0
2013-11-11 16:49:08.847,99,9.900001,52.17023,4.457922,0,0,29.52474,9.113661,5,1384184935,0.1098328,-0.2775574,-1.015732,25.47824,-39.17729,11.88821,205.6237,205.2807,10,0.0.0.0,10.139.104.221,6,0
2013-11-11 16:49:08.954,100,10,52.17023,4.457922,0,0,29.52474,9.113661,5,1384184935,0.1195526,-0.2799835,-1.044891,25.80861,-39.39663,8.098618,202.9553,202.6123,10,0.0.0.0,10.139.104.221,6,0
2013-11-11 16:49:09.136,101,10.1,52.17023,4.457922,0,0,29.52474,9.113661,5,1384184935,0.1126709,-0.2654114,-1.070282,24.10172,-40.1095,8.270874,202.4899,202.1468,10,0.0.0.0,10.139.104.221,6,0
2013-11-11 16:49:09.272,102,10.2,52.17023,4.457922,0,0,29.52474,9.113661,5,1384184935,0.09733582,-0.2097626,-1.109421,22.89038,-41.86427,6.892838,201.0774,200.7343,10,0.0.0.0,10.139.104.221,6,0
2013-11-11 16:49:09.348,103,10.3,52.17023,4.457922,0,0,29.52474,9.113661,5,1384184935,0.05522156,-0.1242828,-1.263641,20.57782,-43.29002,3.103241,199.6399,199.2969,10,0.0.0.0,10.139.104.221,6,0
2013-11-11 16:49:09.445,104,10.4,52.17023,4.457922,0,0,29.52474,9.206768,5,1384184936,0.06970215,-0.1464996,-1.199265,19.91709,-44.05773,1.495537,200.2126,199.8696,10,0.0.0.0,10.139.104.221,6,0
2013-11-11 16:49:09.582,105,10.5,52.17023,4.457922,0,0,29.52474,9.206768,5,1384184936,0.09277344,-0.1866455,-1.268188,16.17295,-45.48348,3.907089,202.784,202.441,10,0.0.0.0,10.139.104.221,6,0
2013-11-11 16:49:09.753,106,10.6,52.17023,4.457922,0,0,29.52474,9.206768,5,1384184936,0.09277344,-0.1866455,-1.268188,16.22801,-45.86733,5.687057,206.0931,205.75,10,0.0.0.0,10.139.104.221,6,0
2013-11-11 16:49:09.837,107,10.7,52.17023,4.457922,0,0,29.52474,9.206768,5,1384184936,0.1228333,-0.2088928,-1.282608,15.51222,-46.03185,7.23735,207.5734,207.2303,10,0.0.0.0,10.139.104.221,6,0
2013-11-11 16:49:09.935,108,10.8,52.17023,4.457922,0,0,29.52474,9.206768,5,1384184936,0.1259155,-0.225296,-1.254333,14.79643,-46.08669,8.213448,211.1983,210.8552,10,0.0.0.0,10.139.104.221,6,0
2013-11-11 16:49:10.249,109,10.9,52.17023,4.457922,0,0,29.52474,9.206768,5,1384184936,0.1495514,-0.2367401,-1.167557,16.00777,-45.86733,8.213448,217.8793,217.5363,10,0.0.0.0,10.139.104.221,6,0
2013-11-11 16:49:10.386,110,11,52.17023,4.457922,0,0,29.52474,9.206768,5,1384184936,0.148819,-0.2493134,-1.154877,17.87984,-44.98995,10.16567,224.9166,224.5735,10,0.0.0.0,10.139.104.221,6,0
2013-11-11 16:49:10.571,111,11.1,52.17023,4.457922,0,0,29.52474,9.206768,5,1384184936,0.1711121,-0.2141266,-1.213287,19.91709,-44.49643,11.60113,230.7587,230.4156,10,0.0.0.0,10.139.104.221,6,0
2013-11-11 16:49:10.670,112,11.2,52.17023,4.457922,0,0,29.52474,9.206768,5,1384184936,0.1452026,-0.1468048,-1.284653,19.80697,-43.39969,12.29015,231.563,231.22,10,0.0.0.0,10.139.104.221,6,0
2013-11-11 16:49:10.805,113,11.3,52.17023,4.457922,0,0,29.52474,9.206768,5,1384184936,0.08210754,-0.04405212,-1.300735,19.53167,-43.12551,11.77338,232.4309,232.0879,10,0.0.0.0,10.139.104.221,6,0
2013-11-11 16:49:11.142,114,11.4,52.17023,4.457922,0,0,29.52474,9.206768,5,1384184936,0.05523682,0.03910828,-1.238754,18.70575,-44.1674,8.270874,235.9031,235.5601,10,0.0.0.0,10.139.104.221,6,0
2013-11-11 16:49:11.275,115,11.5,52.17023,4.457922,0,0,29.52474,9.206768,5,1384184936,0.08998108,0.05976868,-1.036163,20.52277,-44.88028,7.065086,245.0161,244.6731,10,0.0.0.0,10.139.104.221,1,0
2013-11-11 16:49:11.711,116,11.6,52.17023,4.457922,0,0,29.52474,9.370081,10,1384184937,0.1377258,0.01171875,-0.8411407,13.80534,-45.86734,11.54371,241.9265,241.5834,10,0.0.0.0,10.139.104.221,1,0
2013-11-11 16:49:11.846,117,11.7,52.17023,4.457922,0,0,29.52474,9.370081,10,1384184937,0.1377258,0.01171875,-0.8411407,6.482243,-47.23825,16.76876,238.1779,237.8349,10,0.0.0.0,10.139.104.221,1,0
2013-11-11 16:49:11.933,118,11.8,52.17023,4.457922,0,0,29.52474,9.370081,10,1384184937,0.1262054,-0.02799988,-0.8293915,9.51059,-47.6221,13.49592,256.6697,256.3267,10,0.0.0.0,10.139.104.221,1,0
2013-11-11 16:49:12.208,119,11.9,52.17023,4.457922,0,0,29.52474,9.370081,10,1384184937,0.06498718,-0.01864624,-0.7936401,16.44826,-46.63504,8.213448,269.8957,269.5527,10,0.0.0.0,10.139.104.221,1,0
2013-11-11 16:49:12.399,120,12,52.17023,4.457922,0,0,29.52474,9.370081,10,1384184937,-0.00869751,0.01078796,-0.8319855,19.09118,-45.53831,5.801895,275.2077,274.8647,10,0.0.0.0,10.139.104.221,1,0
2013-11-11 16:49:12.587,121,12.1,52.17023,4.457922,0,0,29.52474,9.370081,10,1384184937,0.004623413,-0.02496338,-0.8707581,22.0094,-44.93512,7.926361,273.8199,273.4769,10,0.0.0.0,10.139.104.221,1,0
2013-11-11 16:49:12.709,122,12.2,52.17023,4.457922,0,0,29.52474,9.370081,10,1384184937,0.01550293,-0.1782837,-0.833313,21.67904,-45.26414,6.778,274.9143,274.5713,10,0.0.0.0,10.139.104.221,1,0
2013-11-11 16:49:12.885,123,12.3,52.17023,4.457922,0,0,29.52474,9.370081,10,1384184937,0.00328064,-0.2184448,-0.8702698,21.23856,-44.49642,6.778,275.6151,275.2721,10,0.0.0.0,10.139.104.221,1,0
2013-11-11 16:49:12.967,124,12.4,52.17023,4.457922,0,0,29.52474,9.370081,10,1384184937,-0.002441406,-0.2453613,-0.9412994,21.7341,-44.44159,5.57222,277.5687,277.2256,10,0.0.0.0,10.139.104.221,1,0
2013-11-11 16:49:13.235,125,12.5,52.17023,4.457922,0,0,29.52474,9.717682,10,1384184938,-0.002441406,-0.2453613,-0.9412994,21.34868,-44.27708,0.461998,286.3812,286.0382,10,0.0.0.0,10.139.104.221,1,0
2013-11-11 16:49:13.344,126,12.6,52.17023,4.457922,0,0,29.52474,9.717682,10,1384184938,-0.02166748,-0.2567139,-1.051361,21.62398,-45.42865,-2.006973,290.9137,290.5706,10,0.0.0.0,10.139.104.221,1,0
2013-11-11 16:49:13.447,127,12.7,52.17023,4.457922,0,0,29.52474,9.717682,10,1384184938,-0.01634216,-0.200943,-1.033951,21.34868,-46.03185,-2.17923,292.8637,292.5207,10,0.0.0.0,10.139.104.221,1,0
2013-11-11 16:49:13.535,128,12.8,52.17023,4.457922,0,0,29.52474,9.717682,10,1384184938,0.01753235,-0.2056427,-0.9374237,22.67014,-45.48348,-3.557266,292.1229,291.7799,10,0.0.0.0,10.139.104.221,1,0
2013-11-11 16:49:13.633,129,12.9,52.17023,4.457922,0,0,29.52474,9.717682,10,1384184938,0.05281067,-0.2924194,-0.945816,24.37703,-44.0029,-5.222389,292.6243,292.2813,10,0.0.0.0,10.139.104.221,1,0
2013-11-11 16:49:13.722,130,13,52.17023,4.457922,0,0,29.52474,9.717682,10,1384184938,0.04011536,-0.3541107,-0.9866028,27.13007,-40.93205,-7.633957,295.7271,295.3841,10,0.0.0.0,10.139.104.221,1,0
2013-11-11 16:49:13.819,131,13.1,52.17023,4.457922,0,0,29.52474,9.717682,10,1384184938,-0.009399414,-0.3352051,-1.05986,29.49768,-39.45147,-8.035881,296.8756,296.5326,10,0.0.0.0,10.139.104.221,1,0
2013-11-11 16:49:13.918,132,13.2,52.17023,4.457922,0,0,29.52474,9.717682,10,1384184938,-0.009399414,-0.3352051,-1.05986,31.59,-39.12245,-7.346863,296.3035,295.9605,10,0.0.0.0,10.139.104.221,1,0
2013-11-11 16:49:14.381,133,13.3,52.17023,4.457922,0,0,29.52474,9.717682,10,1384184938,-0.008148193,-0.1742096,-1.086563,30.3236,-38.19023,-3.040504,301.8742,301.5312,10,0.0.0.0,10.139.104.221,1,0
2013-11-11 16:49:14.525,134,13.4,52.17023,4.457922,0,0,29.52474,9.717682,10,1384184938,-0.0308075,-0.07513428,-0.9856567,30.54384,-38.62892,-2.121819,305.5841,305.2411,10,0.0.0.0,10.139.104.221,1,0
2013-11-11 16:49:14.670,135,13.5,52.17023,4.457922,0,0,29.52474,9.717682,10,1384184938,-0.04206848,-0.09577942,-0.9136047,31.81024,-37.91604,0.2323303,308.7085,308.3655,10,0.0.0.0,10.139.104.221,1,0
2013-11-11 16:49:14.769,136,13.6,52.17023,4.457922,0,0,29.52474,9.717682,10,1384184938,-0.05355835,-0.1878967,-0.8598633,32.47097,-37.14833,1.265862,308.0911,307.7481,10,0.0.0.0,10.139.104.221,1,0
2013-11-11 16:49:14.918,137,13.7,52.17023,4.457922,0,0,29.52474,10.06765,10,1384184939,-0.05319214,-0.2381287,-0.9025726,31.09445,-36.21611,5.227715,307.7552,307.4121,10,0.0.0.0,10.139.104.221,1,0
2013-11-11 16:49:15.138,138,13.8,52.17023,4.457922,0,0,29.52474,10.06765,10,1384184939,-0.04382324,-0.2155304,-0.9775543,30.92927,-35.94193,6.203819,310.0022,309.6591,10,0.0.0.0,10.139.104.221,1,0
2013-11-11 16:49:15.265,139,13.9,52.17023,4.457922,0,0,29.52474,10.06765,10,1384184939,-0.04891968,-0.1886292,-1.039963,31.47988,-35.83226,5.974152,315.2554,314.9124,10,0.0.0.0,10.139.104.221,1,0
2013-11-11 16:49:15.413,140,14,52.17023,4.457922,0,0,29.52474,10.06765,10,1384184939,-0.03335571,-0.2017517,-1.051544,32.52603,-35.88709,6.950256,322.6041,322.2611,10,0.0.0.0,10.139.104.221,1,0
2013-11-11 16:49:15.538,141,14.1,52.17023,4.457922,0,0,29.52474,10.06765,10,1384184939,-0.01118469,-0.2663116,-1.010391,32.69122,-35.17422,6.088989,325.4681,325.1251,10,0.0.0.0,10.139.104.221,1,0
2013-11-11 16:49:15.674,142,14.2,52.17023,4.457922,0,0,29.52474,10.06765,10,1384184939,-0.01118469,-0.2663116,-1.010391,33.46207,-34.40651,5.514801,331.9694,331.6264,10,0.0.0.0,10.139.104.221,1,0
2013-11-11 16:49:15.788,143,14.3,52.17023,4.457922,0,0,29.52474,10.06765,10,1384184939,0.0395813,-0.2970123,-0.9419708,35.00377,-33.41945,6.088989,334.896,334.553,10,0.0.0.0,10.139.104.221,1,0
2013-11-11 16:49:15.924,144,14.4,52.17023,4.457922,0,0,29.52474,10.06765,10,1384184939,0.06811523,-0.3405609,-0.937851,39.57382,-29.41639,10.51018,332.7194,332.3764,10,0.0.0.0,10.139.104.221,1,0
2013-11-11 16:49:16.171,145,14.5,52.17023,4.457922,0,0,29.52474,10.06765,10,1384184939,0.1125183,-0.3239899,-0.9552307,39.90419,-28.31966,12.57724,329.3532,329.0102,10,0.0.0.0,10.139.104.221,1,0
2013-11-11 16:49:16.251,146,14.6,52.17023,4.457922,0,0,29.52474,10.06765,10,1384184939,0.1116486,-0.2792664,-0.9835968,39.57382,-29.52606,12.00305,328.307,327.964,10,0.0.0.0,10.139.104.221,1,0
2013-11-11 16:49:16.350,147,14.7,52.17023,4.457922,0,0,29.52474,10.06765,10,1384184939,0.08592224,-0.2245026,-1.035446,38.91309,-31.06148,12.57724,323.4358,323.0927,10,0.0.0.0,10.139.104.221,1,0
2013-11-11 16:49:16.485,148,14.8,52.17023,4.457922,0,0,29.52474,10.06765,10,1384184939,0.08285522,-0.1987915,-1.116318,38.03212,-32.5969,15.21847,319.0569,318.7139,10,0.0.0.0,10.139.104.221,1,0
2013-11-11 16:49:16.680,149,14.9,52.17023,4.457922,0,0,29.52474,10.06765,10,1384184939,0.1430206,-0.1902313,-1.010971,36.82078,-32.04854,16.71134,313.983,313.64,10,0.0.0.0,10.139.104.221,1,0
2013-11-11 16:49:16.880,150,15,52.17022,4.457913,0,0.08700703,259.4539,10.36778,10,1384184940,0.2736664,-0.1887817,-0.886795,36.32523,-32.65174,17.80228,312.5673,312.2243,10,0.0.0.0,10.139.104.221,1,0
2013-11-11 16:49:16.951,151,15.1,52.17022,4.457913,0,0.08700703,259.4539,10.36778,10,1384184940,0.2784576,-0.1767578,-0.9530182,35.60944,-32.48723,18.89323,313.0055,312.6625,10,0.0.0.0,10.139.104.221,1,0
2013-11-11 16:49:17.182,152,15.2,52.17022,4.457913,0,0.08700703,259.4539,10.36778,10,1384184940,0.1605682,-0.1624146,-1.030441,34.50822,-33.69364,17.8597,313.2089,312.8659,10,0.0.0.0,10.139.104.221,1,0
2013-11-11 16:49:17.254,153,15.3,52.17022,4.457913,0,0.08700703,259.4539,10.36778,10,1384184940,0.1605682,-0.1624146,-1.030441,33.79243,-33.6388,16.65392,311.3214,310.9784,10,0.0.0.0,10.139.104.221,1,0
2013-11-11 16:49:17.370,154,15.4,52.17022,4.457913,0,0.08700703,259.4539,10.36778,10,1384184940,0.1307983,-0.2397766,-0.7889099,33.1317,-35.39357,16.88359,308.4563,308.1133,10,0.0.0.0,10.139.104.221,1,0
2013-11-11 16:49:17.466,155,15.5,52.17022,4.457913,0,0.08700703,259.4539,10.36778,10,1384184940,0.1260529,-0.2929993,-0.7371674,33.1317,-35.83226,18.4913,306.2237,305.8807,10,0.0.0.0,10.139.104.221,1,0
2013-11-11 16:49:17.548,156,15.6,52.17022,4.457913,0,0.08700703,259.4539,10.36778,10,1384184940,0.1238861,-0.280304,-0.7450256,30.87421,-35.11938,20.50094,307.2986,306.9555,10,0.0.0.0,10.139.104.221,1,0
2013-11-11 16:49:17.654,157,15.7,52.17022,4.457913,0,0.08700703,259.4539,10.36778,10,1384184940,0.1238861,-0.280304,-0.7450256,28.39647,-32.4324,29.17108,115.8396,115.4965,10,0.0.0.0,10.139.104.221,1,0
2013-11-11 16:49:17.764,158,15.8,52.17022,4.457913,0,0.08700703,259.4539,10.36778,10,1384184940,0.112793,-0.2834473,-0.7927551,28.23129,-32.70658,30.49169,85.77345,85.43042,10,0.0.0.0,10.139.104.221,1,0
2013-11-11 16:49:17.848,159,15.9,52.17022,4.457913,0,0.08700703,259.4539,10.36778,10,1384184940,0.1087952,-0.2652893,-0.8483124,26.96489,-33.85814,30.77879,286.4129,286.0699,10,0.0.0.0,10.139.104.221,1,0
2013-11-11 16:49:17.957,160,16,52.17022,4.457913,0,0.08700703,259.4539,10.36778,10,1384184940,0.08424377,-0.259491,-0.9097443,25.69848,-34.79036,30.72137,283.998,283.655,10,0.0.0.0,10.139.104.221,1,0
2013-11-11 16:49:18.163,161,16.1,52.17022,4.457913,0,0,259.6765,10.52886,10,1384184941,0.05947876,-0.2514801,-0.9420166,26.63452,-34.07749,28.94141,284.516,284.173,10,0.0.0.0,10.139.104.221,1,0
2013-11-11 16:49:18.246,162,16.2,52.17022,4.457913,0,0,259.6765,10.52886,10,1384184941,0.05938721,-0.2437897,-0.9585876,27.29525,-35.2839,26.75951,291.4366,291.0936,10,0.0.0.0,10.139.104.221,1,0
2013-11-11 16:49:18.353,163,16.3,52.17022,4.457913,0,0,259.6765,10.52886,10,1384184941,0.08351135,-0.2524414,-0.9944916,26.08391,-36.27095,28.94141,285.476,285.1329,10,0.0.0.0,10.139.104.221,1,0
2013-11-11 16:49:18.468,164,16.4,52.17022,4.457913,0,0,259.6765,10.52886,10,1384184941,0.1233368,-0.2828674,-1.030273,24.65233,-35.39357,31.69748,282.6648,282.3217,10,0.0.0.0,10.139.104.221,1,0
2013-11-11 16:49:18.561,165,16.5,52.17022,4.457913,0,0,259.6765,10.52886,10,1384184941,0.1213379,-0.3274689,-0.9960938,21.12843,-33.52913,35.83158,96.51311,96.17008,10,0.0.0.0,10.139.104.221,1,0
2013-11-11 16:49:18.655,166,16.6,52.17022,4.457913,0,0,259.6765,10.52886,10,1384184941,0.1034241,-0.3881531,-0.9375916,18.70575,-32.32272,35.83158,99.36462,99.02159,10,0.0.0.0,10.139.104.221,1,0
2013-11-11 16:49:18.739,167,16.7,52.17022,4.457913,0,0,259.6765,10.52886,10,1384184941,0.1034241,-0.3881531,-0.9375916,17.10899,-32.59691,38.30056,100.2133,99.87027,10,0.0.0.0,10.139.104.221,1,0
2013-11-11 16:49:18.845,168,16.8,52.17022,4.457913,0,0,259.6765,10.52886,10,1384184941,0.07849121,-0.4209137,-0.9414978,16.44826,-32.59691,39.33409,100.8578,100.5148,10,0.0.0.0,10.139.104.221,1,0
2013-11-11 16:49:18.941,169,16.9,52.17022,4.457913,0,0,259.6765,10.52886,10,1384184941,0.04692078,-0.4068604,-0.9698792,16.83369,-32.76141,40.3102,100.0381,99.69512,10,0.0.0.0,10.139.104.221,1,0
2013-11-11 16:49:19.359,170,17,52.17022,4.457913,0,0,259.6765,10.52886,10,1384184941,0.0353241,-0.3941193,-0.9913788,16.00777,-29.63573,39.79343,99.33422,98.9912,10,0.0.0.0,10.139.104.221,1,0
2013-11-11 16:49:19.542,171,17.1,52.17022,4.457913,0,0,259.6765,10.52886,10,1384184941,0.02316284,-0.3989258,-1.007965,17.27417,-28.48417,40.42503,97.73499,97.39196,10,0.0.0.0,10.139.104.221,1,0
2013-11-11 16:49:19.661,172,17.2,52.17022,4.457913,0,0,259.6765,10.89875,10,1384184942,0.01252747,-0.3871765,-1.030441,20.63288,-25.90685,41.74565,97.52969,97.18667,10,0.0.0.0,10.139.104.221,1,0
2013-11-11 16:49:19.754,173,17.3,52.17022,4.457913,0,0,259.6765,10.89875,10,1384184942,0.00163269,-0.365509,-1.035385,21.67904,-25.63267,41.5734,97.71432,97.3713,10,0.0.0.0,10.139.104.221,1,0
2013-11-11 16:49:19.868,174,17.4,52.17022,4.457913,0,0,259.6765,10.89875,10,1384184942,0.02684021,-0.3912964,-1.021606,22.06447,-24.37143,41.17147,98.01397,97.67094,10,0.0.0.0,10.139.104.221,1,0
2013-11-11 16:49:19.982,175,17.5,52.17022,4.457913,0,0,259.6765,10.89875,10,1384184942,0.02684021,-0.3912964,-1.021606,23.05556,-22.72634,41.86049,96.38616,96.04314,10,0.0.0.0,10.139.104.221,1,0
2013-11-11 16:49:20.222,176,17.6,52.17022,4.457913,0,0,259.6765,10.89875,10,1384184942,0.01176453,-0.4052429,-0.9768372,25.03775,-20.64255,41.74565,95.12653,94.78351,10,0.0.0.0,10.139.104.221,1,0
2013-11-11 16:49:20.373,177,17.7,52.17022,4.457913,0,0,259.6765,10.89875,10,1384184942,-0.01152039,-0.4356537,-0.9310913,27.13007,-18.22975,42.09016,94.04331,93.70029,10,0.0.0.0,10.139.104.221,1,0
2013-11-11 16:49:20.552,178,17.8,52.17022,4.457913,0,0,259.6765,10.89875,10,1384184942,-0.0133667,-0.4366913,-0.9418182,28.67177,-15.26858,43.12368,91.5607,91.21767,10,0.0.0.0,10.139.104.221,1,0
2013-11-11 16:49:20.714,179,17.9,52.17022,4.457913,0,0,259.6765,10.89875,10,1384184942,-0.0160675,-0.4303436,-1.003174,29.27744,-10.82682,43.87012,94.49236,94.14934,10,0.0.0.0,10.139.104.221,1,0
2013-11-11 16:49:20.848,180,18,52.17022,4.457913,0,0,259.6765,10.89875,10,1384184942,0.01287842,-0.3094177,-1.075409,29.77299,-7.152776,44.04238,96.59039,96.24736,10,0.0.0.0,10.139.104.221,1,0
2013-11-11 16:49:21.140,181,18.1,52.17022,4.457913,0,0,259.6765,10.89875,10,1384184942,0.02912903,-0.205246,-1.195374,27.29525,-9.839762,45.47783,98.48041,98.13738,10,0.0.0.0,10.139.104.221,1,0
2013-11-11 16:49:21.297,182,18.2,52.17022,4.457913,0,0,259.6765,10.89875,10,1384184942,0.02694702,-0.1448364,-1.219894,25.75355,-12.80093,46.39652,97.53138,97.18835,10,0.0.0.0,10.139.104.221,1,0
2013-11-11 16:49:21.481,183,18.3,52.17022,4.457913,0,0,259.6765,10.89875,10,1384184942,0.05645752,-0.1940765,-0.9762421,24.48714,-15.26857,45.87976,95.5079,95.16487,10,0.0.0.0,10.139.104.221,1,0
2013-11-11 16:49:21.611,184,18.4,52.17022,4.457913,0,0,259.6765,10.89875,10,1384184942,0.05645752,-0.1940765,-0.9762421,23.33087,-19.82,43.75528,95.57468,95.23166,10,0.0.0.0,10.139.104.221,1,0
2013-11-11 16:49:21.741,185,18.5,52.17022,4.457913,0,0,259.6765,10.89875,10,1384184942,0.111969,-0.3435059,-0.7341919,22.67014,-22.89085,42.14758,94.40342,94.06039,10,0.0.0.0,10.139.104.221,1,0
2013-11-11 16:49:21.825,186,18.6,52.17022,4.457913,0,0,259.6765,39.95097,30,1384184943,0.111969,-0.3435059,-0.7341919,21.78917,-26.29071,41.34372,92.81216,92.46913,10,0.0.0.0,10.139.104.221,1,0
2013-11-11 16:49:22.131,187,18.7,52.17022,4.457913,0,0,259.6765,39.95097,30,1384184943,0.1055908,-0.2056122,-1.065582,19.2013,-29.85508,39.44893,98.53649,98.19347,10,0.0.0.0,10.139.104.221,1,0
2013-11-11 16:49:22.271,188,18.8,52.17022,4.457913,0,0,259.6765,39.95097,30,1384184943,0.04017639,-0.2411957,-0.9304199,20.79807,-27.60678,40.76954,97.67175,97.32872,10,0.0.0.0,10.139.104.221,1,0
2013-11-11 16:49:22.412,189,18.9,52.17022,4.457913,0,0,259.6765,39.95097,30,1384184943,0.03259277,-0.2803802,-0.7385712,22.78026,-23.21986,44.0998,95.7571,95.41408,10,0.0.0.0,10.139.104.221,1,0
2013-11-11 16:49:22.524,190,19,52.17022,4.457913,0,0,259.6765,39.95097,30,1384184943,0.03898621,-0.3314056,-0.6390839,24.59727,-20.86189,45.42041,95.38357,95.04054,10,0.0.0.0,10.139.104.221,1,0
2013-11-11 16:49:22.631,191,19.1,52.17022,4.457913,0,0,259.6765,39.95097,30,1384184943,0.03898621,-0.3314056,-0.6390839,27.46043,-17.24269,44.73139,94.3041,93.96107,10,0.0.0.0,10.139.104.221,1,0
2013-11-11 16:49:22.729,192,19.2,52.17022,4.457913,0,0,259.6765,39.95097,30,1384184943,0.0302887,-0.3038635,-0.7453156,29.71793,-11.70421,44.44431,93.60938,93.26636,10,0.0.0.0,10.139.104.221,1,0
2013-11-11 16:49:22.827,193,19.3,52.17022,4.457913,0,0,259.6765,39.95097,30,1384184943,0.0302887,-0.3038635,-0.7453156,30.26854,-4.685134,43.87012,95.59027,95.24725,10,0.0.0.0,10.139.104.221,1,0
2013-11-11 16:49:22.920,194,19.4,52.17022,4.457913,0,0,259.6765,39.95097,30,1384184943,0.04385376,-0.354126,-0.7626495,29.66287,-6.604411,44.50172,92.6958,92.35278,10,0.0.0.0,10.139.104.221,1,0
2013-11-11 16:49:23.113,195,19.5,52.17022,4.457913,0,0,259.6765,39.95097,30,1384184943,0.06359863,-0.4203644,-0.8042755,22.17459,-19.43615,44.84623,90.04461,89.70158,10,0.0.0.0,10.139.104.221,1,0
2013-11-11 16:49:23.216,196,19.6,52.17022,4.457913,0,0,259.6765,12.33713,10,1384184944,-0.002166748,-0.4766388,-0.9046783,19.69685,-24.75529,41.45856,91.58793,91.2449,10,0.0.0.0,10.139.104.221,1,0
2013-11-11 16:49:23.408,197,19.7,52.17022,4.457913,0,0,259.6765,12.33713,10,1384184944,-0.006072998,-0.498764,-0.98349,22.39483,-22.0683,43.00885,92.76807,92.42505,10,0.0.0.0,10.139.104.221,1,0
2013-11-11 16:49:23.534,198,19.8,52.17022,4.457913,0,0,259.6765,12.33713,10,1384184944,0.05136108,-0.5146332,-0.9909973,25.5333,-17.18785,44.78881,91.30916,90.96613,10,0.0.0.0,10.139.104.221,1,0
2013-11-11 16:49:23.638,199,19.9,52.17022,4.457913,0,0,259.6765,12.33713,10,1384184944,0.07040405,-0.5207062,-0.970459,29.82805,-9.949436,45.13332,90.95285,90.60983,10,0.0.0.0,10.139.104.221,1,0
2013-11-11 16:49:23.720,200,20,52.17022,4.457913,0,0,259.6765,12.33713,10,1384184944,0.06451416,-0.5052643,-1.005585,32.74628,-1.888471,44.38689,90.97441,90.63139,10,0.0.0.0,10.139.104.221,1,0
2013-11-11 16:49:23.819,201,20.1,52.17022,4.457913,0,0,259.6765,12.33713,10,1384184944,0.08148193,-0.480957,-1.091232,31.47988,-3.259383,44.67398,91.84122,91.49819,10,0.0.0.0,10.139.104.221,1,0
2013-11-11 16:49:23.918,202,20.2,52.17022,4.457913,0,0,259.6765,12.33713,10,1384184944,0.1467743,-0.4600372,-1.121216,29.55274,-9.784923,43.35336,91.21803,90.875,10,0.0.0.0,10.139.104.221,1,0
2013-11-11 16:49:24.135,203,20.3,52.17022,4.457913,0,0,259.6765,12.33713,10,1384184944,0.1467743,-0.4600372,-1.121216,26.41428,-18.28458,42.83659,87.7572,87.41418,10,0.0.0.0,10.139.104.221,1,0
2013-11-11 16:49:24.232,204,20.4,52.17022,4.457913,0,0,259.6765,12.33713,10,1384184944,0.1329803,-0.3870239,-0.9647369,22.33977,-23.11019,41.22889,86.45262,86.1096,10,0.0.0.0,10.139.104.221,6,0
2013-11-11 16:49:24.316,205,20.5,52.17022,4.457913,0,0,259.6765,12.33713,10,1384184944,0.03569031,-0.2799225,-1.007263,21.23856,-25.41333,40.3102,88.58788,88.24485,10,0.0.0.0,10.139.104.221,1,0
2013-11-11 16:49:24.436,206,20.6,52.17022,4.457913,0,0,259.6765,12.33713,10,1384184944,-0.02540588,-0.1950989,-1.161545,23.49605,-24.37143,39.44893,90.15813,89.8151,10,0.0.0.0,10.139.104.221,1,0
2013-11-11 16:49:24.521,207,20.7,52.17019,4.457853,0,0.1117374,248.3494,12.58768,10,1384184945,-0.003509521,-0.1058655,-1.191864,25.86367,-21.02641,40.65471,88.79003,88.44701,10,0.0.0.0,10.139.104.221,1,0
2013-11-11 16:49:24.653,208,20.8,52.17019,4.457853,0,0.1117374,248.3494,12.58768,10,1384184945,-0.003509521,-0.1058655,-1.191864,29.44262,-12.85577,44.15722,86.83027,86.48724,10,0.0.0.0,10.139.104.221,1,0
2013-11-11 16:49:24.752,209,20.9,52.17019,4.457853,0,0.1117374,248.3494,12.58768,10,1384184945,0.2329712,-0.1659393,-1.045731,32.30579,-5.836699,42.66434,89.1311,88.78807,10,0.0.0.0,10.139.104.221,1,0
2013-11-11 16:49:24.855,210,21,52.17019,4.457853,0,0.1117374,248.3494,12.58768,10,1384184945,0.2577209,-0.08143616,-1.048767,34.72847,-1.340109,41.17147,92.84132,92.4983,10,0.0.0.0,10.139.104.221,6,0
2013-11-11 16:49:24.939,211,21.1,52.17019,4.457853,0,0.1117374,248.3494,12.58768,10,1384184945,0.2577209,-0.08143616,-1.048767,31.20457,-6.275393,42.89401,85.65645,85.31342,10,0.0.0.0,10.139.104.221,6,0
2013-11-11 16:49:25.163,212,21.2,52.17019,4.457853,0,0.1117374,248.3494,12.58768,10,1384184945,0.1242065,-0.1445007,-0.8553925,24.59727,-22.28765,40.71212,86.82296,86.47993,10,0.0.0.0,10.139.104.221,6,0
2013-11-11 16:49:25.236,213,21.3,52.17019,4.457853,0,0.1117374,248.3494,12.58768,10,1384184945,0.1242065,-0.1445007,-0.8553925,23.60617,-26.34555,40.25278,89.03819,88.69517,10,0.0.0.0,10.139.104.221,6,0
2013-11-11 16:49:25.342,214,21.4,52.17019,4.457853,0,0.1117374,248.3494,12.58768,10,1384184945,0.1591187,-0.2352905,-0.7683563,23.11062,-27.71646,39.96569,91.66512,91.3221,10,0.0.0.0,10.139.104.221,6,0
2013-11-11 16:49:25.437,215,21.5,52.17019,4.457853,0,0.1117374,248.3494,12.58768,10,1384184945,0.126236,-0.2709656,-0.6788177,24.21184,-25.08431,40.53987,92.0892,91.74618,10,0.0.0.0,10.139.104.221,6,0
2013-11-11 16:49:25.519,216,21.6,52.17019,4.457853,0,0.1117374,248.3494,12.58768,10,1384184945,0.06867981,-0.1726532,-0.6325684,27.73574,-18.83295,42.37725,89.28523,88.94221,10,0.0.0.0,10.139.104.221,6,0
2013-11-11 16:49:25.635,217,21.7,52.17019,4.457853,0,0.1117374,248.3494,12.58768,10,1384184945,0.1786041,-0.219696,-0.9484406,30.43372,-13.9525,43.46819,91.32694,90.98392,10,0.0.0.0,10.139.104.221,6,0
2013-11-11 16:49:25.740,218,21.8,52.17019,4.457853,0,0.1117374,248.3494,12.58768,10,1384184945,0.2501221,-0.1448669,-0.9454193,35.49932,-2.546507,41.86049,93.89446,93.55144,10,0.0.0.0,10.139.104.221,6,0
2013-11-11 16:49:25.836,219,21.9,52.17019,4.457853,0,0.1117374,248.3494,12.58768,10,1384184945,0.2501221,-0.1448669,-0.9454193,36.32523,-0.4078839,41.68823,95.78857,95.44554,10,0.0.0.0,10.139.104.221,6,0
2013-11-11 16:49:25.920,220,22,52.17019,4.457822,0,0.2261108,252.1117,12.7072,10,1384184946,0.07546997,-0.06843567,-0.7662048,35.60944,-0.7917409,41.97532,94.16475,93.82172,10,0.0.0.0,10.139.104.221,6,0
2013-11-11 16:49:26.149,221,22.1,52.17019,4.457822,0,0.2261108,252.1117,12.7072,10,1384184946,0.07546997,-0.06843567,-0.7662048,27.95598,-22.89085,40.76954,86.85053,86.50751,10,0.0.0.0,10.139.104.221,6,0
2013-11-11 16:49:26.246,222,22.2,52.17019,4.457822,0,0.2261108,252.1117,12.7072,10,1384184946,-0.01315308,-0.04104614,-0.8503571,25.75355,-25.523,38.70249,88.3645,88.02148,10,0.0.0.0,10.139.104.221,6,0
2013-11-11 16:49:26.332,223,22.3,52.17019,4.457822,0,0.2261108,252.1117,12.7072,10,1384184946,-0.04618835,0.05718994,-0.9724274,25.42318,-26.51006,38.12831,90.34277,89.99975,10,0.0.0.0,10.139.104.221,6,0
2013-11-11 16:49:26.458,224,22.4,52.17019,4.457822,0,0.2261108,252.1117,12.7072,10,1384184946,-0.149765,-0.0362854,-0.9472809,27.73574,-25.74234,38.35798,89.82202,89.479,10,0.0.0.0,10.139.104.221,6,0
2013-11-11 16:49:26.538,225,22.5,52.17019,4.457822,0,0.2261108,252.1117,12.7072,10,1384184946,-0.2109528,-0.05685425,-0.9805603,32.69122,-21.57477,40.65471,89.92742,89.5844,10,0.0.0.0,10.139.104.221,6,0
2013-11-11 16:49:26.654,226,22.6,52.17019,4.457822,0,0.2261108,252.1117,12.7072,10,1384184946,-0.1702576,-0.07501221,-1.060196,37.20621,-14.00734,40.3102,89.55853,89.2155,10,0.0.0.0,10.139.104.221,6,0
2013-11-11 16:49:26.738,227,22.7,52.17019,4.457822,0,0.2261108,252.1117,12.7072,10,1384184946,-0.1568298,0.002029419,-1.047699,39.4637,-8.030159,40.48245,93.32394,92.98091,10,0.0.0.0,10.139.104.221,6,0
2013-11-11 16:49:26.851,228,22.8,52.17019,4.457822,0,0.2261108,252.1117,12.7072,10,1384184946,-0.1568298,0.002029419,-1.047699,40.4548,-1.998142,40.02311,96.06348,95.72046,10,0.0.0.0,10.139.104.221,6,0
2013-11-11 16:49:26.947,229,22.9,52.17019,4.457822,0,0.2261108,252.1117,12.7072,10,1384184946,-0.001922607,0.05259705,-1.276978,39.24346,-0.1337044,42.66434,97.16758,96.82455,10,0.0.0.0,10.139.104.221,6,0
2013-11-11 16:49:27.129,230,23,52.17019,4.457822,0,0.2261108,252.1117,12.7072,10,1384184946,-0.001922607,0.05259705,-1.276978,33.90256,-12.36224,43.29594,93.63108,93.28806,10,0.0.0.0,10.139.104.221,6,0
2013-11-11 16:49:27.227,231,23.1,52.17019,4.457822,0,0.2261108,252.1117,12.7072,10,1384184946,-0.3870087,0.05422974,-1.293106,31.36975,-19.92968,40.99921,93.05365,92.71062,10,0.0.0.0,10.139.104.221,6,0
2013-11-11 16:49:27.355,232,23.2,52.17019,4.457822,0,0.2261108,252.1117,12.7072,10,1384184946,-0.2342224,0.2883453,-1.547226,29.0572,-25.85202,38.81733,93.56995,93.22692,10,0.0.0.0,10.139.104.221,6,0
2013-11-11 16:49:27.437,233,23.3,52.1702,4.457777,0,0.403677,271.6588,12.66864,10,1384184947,-0.09321594,0.3131561,-1.520447,26.41428,-30.45828,37.55413,96.76528,96.42226,10,0.0.0.0,10.139.104.221,6,0
2013-11-11 16:49:27.536,234,23.4,52.1702,4.457777,0,0.403677,271.6588,12.66864,10,1384184947,-0.1259766,0.1455383,-1.430557,25.91873,-30.73247,38.30056,98.36406,98.02103,10,0.0.0.0,10.139.104.221,6,0
2013-11-11 16:49:27.638,235,23.5,52.1702,4.457777,0,0.403677,271.6588,12.66864,10,1384184947,-0.2094879,0.2336578,-1.489532,27.24019,-29.08737,38.18572,99.10019,98.75716,10,0.0.0.0,10.139.104.221,6,0
2013-11-11 16:49:27.754,236,23.6,52.1702,4.457777,0,0.403677,271.6588,12.66864,10,1384184947,-0.2094879,0.2336578,-1.489532,29.49768,-25.30365,39.39151,98.76065,98.41763,10,0.0.0.0,10.139.104.221,6,0
2013-11-11 16:49:27.828,237,23.7,52.1702,4.457777,0,0.403677,271.6588,12.66864,10,1384184947,-0.07557678,0.05192566,-0.9696045,33.18676,-16.25563,41.40114,100.3733,100.0303,10,0.0.0.0,10.139.104.221,6,0
2013-11-11 16:49:27.935,238,23.8,52.1702,4.457777,0,0.403677,271.6588,12.66864,10,1384184947,-0.06208801,-0.003829956,-0.7289581,36.82078,-2.546511,43.46819,101.0581,100.7151,10,0.0.0.0,10.139.104.221,6,0
2013-11-11 16:49:28.140,239,23.9,52.1702,4.457777,0,0.403677,271.6588,12.66864,10,1384184947,-0.06208801,-0.003829956,-0.7289581,33.24182,-6.4399,42.83659,96.02154,95.67851,10,0.0.0.0,10.139.104.221,6,0
2013-11-11 16:49:28.220,240,24,52.1702,4.457777,0,0.403677,271.6588,12.66864,10,1384184947,-0.04292297,0.01608276,-0.8632812,28.45153,-16.47498,42.31983,95.28469,94.94167,10,0.0.0.0,10.139.104.221,6,0
2013-11-11 16:49:28.330,241,24.1,52.1702,4.457777,0,0.403677,271.6588,12.66864,10,1384184947,-0.04292297,0.01608276,-0.8632812,24.04666,-27.55195,39.33409,94.97839,94.63536,10,0.0.0.0,10.139.104.221,6,0
2013-11-11 16:49:28.427,242,24.2,52.1702,4.457777,0,0.403677,271.6588,12.66864,10,1384184947,0.0124054,0.07820129,-1.006332,24.59727,-27.77129,38.07089,96.54569,96.20267,10,0.0.0.0,10.139.104.221,6,0
2013-11-11 16:49:28.523,243,24.3,52.1702,4.457777,0,0.403677,271.6588,12.66864,10,1384184947,0.0741272,0.127655,-1.020828,25.80861,-26.67456,39.56376,96.71953,96.3765,10,0.0.0.0,10.139.104.221,6,0
2013-11-11 16:49:28.621,244,24.4,52.1702,4.457777,0,0.403677,271.6588,12.66864,10,1384184947,0.1188354,0.04447937,-0.8247375,32.63615,-18.0104,41.74565,95.51408,95.17106,10,0.0.0.0,10.139.104.221,6,0
2013-11-11 16:49:28.721,245,24.5,52.1702,4.457777,0,0.403677,271.6588,12.66864,10,1384184947,0.208786,0.008010864,-0.7687988,34.78353,-11.26551,43.06627,96.42942,96.0864,10,0.0.0.0,10.139.104.221,6,0
2013-11-11 16:49:28.819,246,24.6,52.1702,4.457777,0,0.403677,271.6588,12.66864,10,1384184947,0.181778,-0.02148438,-0.7435303,36.76572,-3.698073,43.52561,99.86842,99.52539,10,0.0.0.0,10.139.104.221,6,0
2013-11-11 16:49:28.983,247,24.7,52.17021,4.457724,0,0.6721585,287.5713,12.64069,10,1384184948,0.1694336,-0.0259552,-0.7250519,35.6645,-4.027092,44.32947,100.1832,99.8402,10,0.0.0.0,10.139.104.221,6,0
2013-11-11 16:49:29.225,248,24.8,52.17021,4.457724,0,0.6721585,287.5713,12.64069,10,1384184948,0.1694336,-0.0259552,-0.7250519,31.53494,-12.85577,44.84623,95.95348,95.61046,10,0.0.0.0,10.139.104.221,6,0
2013-11-11 16:49:29.334,249,24.9,52.17021,4.457724,0,0.6721585,287.5713,12.64069,10,1384184948,0.1453705,0.01057434,-0.8411102,27.51549,-27.05842,42.03274,96.62364,96.28062,10,0.0.0.0,10.139.104.221,6,0
2013-11-11 16:49:29.436,250,25,52.17021,4.457724,0,0.6721585,287.5713,12.64069,10,1384184948,0.1980743,-0.02671814,-0.7463684,28.12116,-30.84214,38.98958,97.25757,96.91454,10,0.0.0.0,10.139.104.221,6,0
2013-11-11 16:49:29.517,251,25.1,52.17021,4.457724,0,0.6721585,287.5713,12.64069,10,1384184948,0.1980743,-0.02671814,-0.7463684,28.67177,-28.42933,39.6786,98.0181,97.67507,10,0.0.0.0,10.139.104.221,6,0
2013-11-11 16:49:29.636,252,25.2,52.17021,4.457724,0,0.6721585,287.5713,12.64069,10,1384184948,0.2224426,-0.03210449,-0.6381836,29.71793,-24.53594,40.53987,98.93471,98.59168,10,0.0.0.0,10.139.104.221,6,0
2013-11-11 16:49:29.737,253,25.3,52.17021,4.457724,0,0.6721585,287.5713,12.64069,10,1384184948,0.2957916,0.04100037,-0.821106,32.25073,-19.27164,42.72176,99.34894,99.00591,10,0.0.0.0,10.139.104.221,6,0
2013-11-11 16:49:29.841,254,25.4,52.17021,4.457724,0,0.6721585,287.5713,12.64069,10,1384184948,0.4576721,0.03474426,-1.050232,35.33414,-9.07205,44.78881,99.59753,99.2545,10,0.0.0.0,10.139.104.221,1,0
2013-11-11 16:49:29.981,255,25.5,52.17021,4.457724,0,0.6721585,287.5713,12.64069,10,1384184948,0.536911,0.03639221,-1.126846,35.44426,-1.175595,43.87012,103.5418,103.1988,10,0.0.0.0,10.139.104.221,1,0
2013-11-11 16:49:30.337,256,25.6,52.17021,4.457724,0,0.6721585,287.5713,12.64069,10,1384184948,0.5694122,-0.09817505,-0.9170532,28.72683,-14.44603,43.75528,95.85261,95.50958,10,0.0.0.0,10.139.104.221,1,0
2013-11-11 16:49:30.476,257,25.7,52.17021,4.457724,0,0.6721585,287.5713,12.64069,10,1384184948,0.6959686,-0.1811218,-0.7323303,23.77135,-26.18103,38.12831,96.53144,96.18842,10,0.0.0.0,10.139.104.221,1,0
2013-11-11 16:49:30.601,258,25.8,52.17021,4.457724,0,0.6721585,287.5713,12.64069,10,1384184948,0.7509766,-0.1417389,-0.6874084,22.89038,-28.04548,38.12831,96.97054,96.62752,10,0.0.0.0,10.139.104.221,1,0
2013-11-11 16:49:30.721,259,25.9,52.17023,4.457671,0,0.950902,296.4897,12.83432,10,1384184949,0.8086395,-0.05610657,-1.033035,22.83532,-27.55195,37.49671,98.03992,97.6969,10,0.0.0.0,10.139.104.221,1,0
2013-11-11 16:49:30.838,260,26,52.17023,4.457671,0,0.950902,296.4897,12.83432,10,1384184949,0.7388458,-0.007324219,-1.195053,25.5333,-23.54889,39.27667,98.74272,98.3997,10,0.0.0.0,10.139.104.221,6,0
2013-11-11 16:49:30.959,261,26.1,52.17023,4.457671,0,0.950902,296.4897,12.83432,10,1384184949,0.68396,0.0333252,-1.033752,31.03939,-11.81387,41.80307,96.58735,96.24432,10,0.0.0.0,10.139.104.221,6,0
2013-11-11 16:49:31.175,262,26.2,52.17023,4.457671,0,0.950902,296.4897,12.83432,10,1384184949,0.68396,0.0333252,-1.033752,33.62725,-2.875525,42.09016,101.8841,101.5411,10,0.0.0.0,10.139.104.221,6,0
2013-11-11 16:49:31.253,263,26.3,52.17023,4.457671,0,0.950902,296.4897,12.83432,10,1384184949,1.00647,0.09779358,-0.7581177,33.18676,-0.901413,43.35336,101.1784,100.8354,10,0.0.0.0,10.139.104.221,6,0
2013-11-11 16:49:31.370,264,26.4,52.17023,4.457671,0,0.950902,296.4897,12.83432,10,1384184949,1.027191,0.09693909,-0.9186859,25.91873,-17.24269,43.46819,95.19418,94.85116,10,0.0.0.0,10.139.104.221,1,0
2013-11-11 16:49:31.470,265,26.5,52.17023,4.457671,0,0.950902,296.4897,12.83432,10,1384184949,0.8620148,-0.003234863,-0.9034729,23.82642,-26.34555,39.10442,95.31819,94.97517,10,0.0.0.0,10.139.104.221,1,0
2013-11-11 16:49:31.573,266,26.6,52.17023,4.457671,0,0.950902,296.4897,12.83432,10,1384184949,0.6834106,-0.05163574,-0.7035065,30.65396,-22.0683,41.51598,94.86771,94.52469,10,0.0.0.0,10.139.104.221,1,0
2013-11-11 16:49:31.669,267,26.7,52.17023,4.457671,0,0.950902,296.4897,12.83432,10,1384184949,0.6834106,-0.05163574,-0.7035065,35.88474,-8.304341,43.41077,98.08656,97.74353,10,0.0.0.0,10.139.104.221,1,0
2013-11-11 16:49:31.782,268,26.8,52.17023,4.457671,0,0.950902,296.4897,12.83432,10,1384184949,0.3900757,-0.2507782,-0.241684,37.31633,0.3598216,44.44431,100.839,100.496,10,0.0.0.0,10.139.104.221,6,0
2013-11-11 16:49:31.864,269,26.9,52.17023,4.457671,0,0.950902,296.4897,12.83432,10,1384184949,0.3950806,-0.2055817,-0.3108978,35.22401,-3.478733,45.13332,96.81551,96.47249,10,0.0.0.0,10.139.104.221,6,0
2013-11-11 16:49:31.969,270,27,52.17026,4.457615,0,1.261093,305.1692,13.09408,10,1384184950,0.3950806,-0.2055817,-0.3108978,33.02158,-7.207612,46.62619,96.31915,95.97612,10,0.0.0.0,10.139.104.221,6,0
2013-11-11 16:49:32.203,271,27.1,52.17026,4.457615,0,1.261093,305.1692,13.09408,10,1384184950,0.5045166,-0.2162018,-0.4895935,26.90982,-27.44227,41.28631,95.66002,95.31699,10,0.0.0.0,10.139.104.221,6,0
2013-11-11 16:49:32.366,272,27.2,52.17026,4.457615,0,1.261093,305.1692,13.09408,10,1384184950,0.5531616,-0.2538147,-0.5447693,27.95598,-25.523,41.11405,96.60985,96.26682,10,0.0.0.0,10.139.104.221,6,0
2013-11-11 16:49:32.465,273,27.3,52.17026,4.457615,0,1.261093,305.1692,13.09408,10,1384184950,0.5547791,-0.1822662,-0.6267548,30.81915,-21.13608,42.72176,95.2142,94.87118,10,0.0.0.0,10.139.104.221,6,0
2013-11-11 16:49:32.566,274,27.4,52.17026,4.457615,0,1.261093,305.1692,13.09408,10,1384184950,0.6680908,-0.1201935,-0.7549896,35.82969,-7.262451,44.96107,97.70525,97.36222,10,0.0.0.0,10.139.104.221,6,0
2013-11-11 16:49:32.690,275,27.5,52.17026,4.457615,0,1.261093,305.1692,13.09408,10,1384184950,0.6969757,-0.09346008,-0.7607727,36.76572,-0.8465767,45.01849,97.09132,96.74829,10,0.0.0.0,10.139.104.221,6,0
2013-11-11 16:49:32.793,276,27.6,52.17026,4.457615,0,1.261093,305.1692,13.09408,10,1384184950,0.7072449,-0.1287231,-0.7489624,28.12116,-17.90073,44.27205,88.57124,88.22821,10,0.0.0.0,10.139.104.221,1,0
2013-11-11 16:49:32.880,277,27.7,52.17026,4.457615,0,1.261093,305.1692,13.09408,10,1384184950,0.7479706,-0.1609497,-0.765274,25.258,-25.35849,41.86049,89.68248,89.33945,10,0.0.0.0,10.139.104.221,1,0
2013-11-11 16:49:33.193,278,27.8,52.17026,4.457615,0,1.261093,305.1692,13.09408,10,1384184950,0.8394775,-0.1621704,-0.8067627,29.38756,-14.66537,43.64045,89.30755,88.96452,10,0.0.0.0,10.139.104.221,1,0
2013-11-11 16:49:33.316,279,27.9,52.17028,4.457558,0,1.505234,305.8543,46.08621,30,1384184951,1.064362,-0.0683136,-0.9580231,34.94871,-3.64324,43.69786,93.37097,93.02795,10,0.0.0.0,10.139.104.221,6,0
2013-11-11 16:49:33.426,280,28,52.17028,4.457558,0,1.505234,305.8543,46.08621,30,1384184951,1.064362,-0.0683136,-0.9580231,38.1973,2.443603,42.49208,95.04551,94.70248,10,0.0.0.0,10.139.104.221,6,0
2013-11-11 16:49:33.522,281,28.1,52.17028,4.457558,0,1.505234,305.8543,46.08621,30,1384184951,1.116165,-0.01980591,-0.8800507,36.71066,-6.056044,43.92754,89.96954,89.62651,10,0.0.0.0,10.139.104.221,6,0
2013-11-11 16:49:33.620,282,28.2,52.17028,4.457558,0,1.505234,305.8543,46.08621,30,1384184951,1.116165,-0.01980591,-0.8800507,27.95598,-25.63267,41.22889,88.78959,88.44656,10,0.0.0.0,10.139.104.221,6,0
2013-11-11 16:49:33.719,283,28.3,52.17028,4.457558,0,1.505234,305.8543,46.08621,30,1384184951,1.095276,0.05342102,-0.8248291,28.94708,-26.61973,39.85085,91.186,90.84298,10,0.0.0.0,10.139.104.221,6,0
2013-11-11 16:49:33.821,284,28.4,52.17028,4.457558,0,1.505234,305.8543,46.08621,30,1384184951,1.040619,0.114151,-0.8213043,31.97542,-23.05536,40.13794,91.76154,91.41852,10,0.0.0.0,10.139.104.221,6,0
2013-11-11 16:49:33.926,285,28.5,52.17028,4.457558,0,1.505234,305.8543,46.08621,30,1384184951,0.9455109,0.1038513,-0.7641907,38.1973,-2.930367,42.72176,95.81326,95.47024,10,0.0.0.0,10.139.104.221,1,0
2013-11-11 16:49:34.142,286,28.6,52.17028,4.457558,0,1.505234,305.8543,46.08621,30,1384184951,0.8108368,0.00378418,-0.5610046,39.57382,-0.02402949,43.35336,95.84667,95.50365,10,0.0.0.0,10.139.104.221,6,0
2013-11-11 16:49:34.248,287,28.7,52.17028,4.457558,0,1.505234,305.8543,46.08621,30,1384184951,0.8108368,0.00378418,-0.5610046,36.54548,-6.110879,44.67398,91.77366,91.43063,10,0.0.0.0,10.139.104.221,6,0
2013-11-11 16:49:34.330,288,28.8,52.17028,4.457558,0,1.505234,305.8543,46.08621,30,1384184951,0.8822021,0.09674072,-0.6086884,32.30579,-14.28152,44.38689,92.40685,92.06382,10,0.0.0.0,10.139.104.221,6,0
2013-11-11 16:49:34.455,289,28.9,52.17028,4.457558,0,1.505234,305.8543,46.08621,30,1384184951,0.9106293,0.15242,-0.6573792,29.71793,-21.35542,42.14758,90.87004,90.52702,10,0.0.0.0,10.139.104.221,6,0
2013-11-11 16:49:34.559,290,29,52.1703,4.45751,0,1.691748,305.6273,49.02273,30,1384184952,0.8356628,0.1414032,-0.6352386,29.0572,-26.51005,39.85085,91.55569,91.21266,10,0.0.0.0,10.139.104.221,6,0
2013-11-11 16:49:34.672,291,29.1,52.1703,4.45751,0,1.691748,305.6273,49.02273,30,1384184952,0.705719,0.1151581,-0.5792236,29.60781,-25.63267,40.3102,94.16688,93.82385,10,0.0.0.0,10.139.104.221,6,0
2013-11-11 16:49:34.768,292,29.2,52.1703,4.45751,0,1.691748,305.6273,49.02273,30,1384184952,0.5604095,0.03720093,-0.4413605,33.51713,-16.58465,43.12368,92.16849,91.82546,10,0.0.0.0,10.139.104.221,6,0
2013-11-11 16:49:34.869,293,29.3,52.1703,4.45751,0,1.691748,305.6273,49.02273,30,1384184952,0.4062653,-0.01570129,-0.3639221,37.15115,-8.249503,43.46819,92.7375,92.39447,10,0.0.0.0,10.139.104.221,6,0
2013-11-11 16:49:34.982,294,29.4,52.1703,4.45751,0,1.691748,305.6273,49.02273,30,1384184952,0.375824,-0.1001434,-0.3667603,34.45316,-7.755973,46.05201,89.07297,88.72994,10,0.0.0.0,10.139.104.221,6,0
2013-11-11 16:49:35.228,295,29.5,52.1703,4.45751,0,1.691748,305.6273,49.02273,30,1384184952,0.4408569,-0.149704,-0.4101715,29.66287,-23.16503,41.74565,87.84971,87.50668,10,0.0.0.0,10.139.104.221,6,0
2013-11-11 16:49:35.342,296,29.6,52.1703,4.45751,0,1.691748,305.6273,49.02273,30,1384184952,0.5055389,-0.1416016,-0.452774,28.83695,-26.07136,40.08052,89.16101,88.81799,10,0.0.0.0,10.139.104.221,6,0
2013-11-11 16:49:35.442,297,29.7,52.1703,4.45751,0,1.691748,305.6273,49.02273,30,1384184952,0.5549927,-0.1322784,-0.5003204,29.49768,-25.41332,39.73602,92.53824,92.19521,10,0.0.0.0,10.139.104.221,6,0
2013-11-11 16:49:35.519,298,29.8,52.1703,4.45751,0,1.691748,305.6273,49.02273,30,1384184952,0.6162262,-0.1416168,-0.5360565,30.70902,-21.79412,40.53987,94.3769,94.03387,10,0.0.0.0,10.139.104.221,6,0
2013-11-11 16:49:35.645,299,29.9,52.1703,4.45751,0,1.691748,305.6273,49.02273,30,1384184952,0.6771088,-0.1353302,-0.5718689,34.50822,-11.75904,42.89401,94.70675,94.36372,10,0.0.0.0,10.139.104.221,6,0
2013-11-11 16:49:35.750,300,30,52.1703,4.45751,0,1.691748,305.6273,49.02273,30,1384184952,0.6771088,-0.1353302,-0.5718689,38.58273,-1.120762,43.46819,98.06208,97.71906,10,0.0.0.0,10.139.104.221,1,0
2013-11-11 16:49:35.834,301,30.1,52.1703,4.45751,0,1.691748,305.6273,49.02273,30,1384184952,0.8141327,-0.118515,-0.6804047,39.35358,0.8533506,43.81271,98.62141,98.27838,10,0.0.0.0,10.139.104.221,1,0
2013-11-11 16:49:35.928,302,30.2,52.17032,4.457459,0,1.863264,304.614,14.89407,10,1384184953,0.8141327,-0.118515,-0.6804047,36.6556,-3.478733,44.21463,95.59487,95.25185,10,0.0.0.0,10.139.104.221,1,0
2013-11-11 16:49:36.199,303,30.3,52.17032,4.457459,0,1.863264,304.614,14.89407,10,1384184953,0.8613892,-0.1001282,-0.7055817,26.02885,-23.60372,39.90827,92.43545,92.09242,10,0.0.0.0,10.139.104.221,1,0
2013-11-11 16:49:36.380,304,30.4,52.17032,4.457459,0,1.863264,304.614,14.89407,10,1384184953,0.8585815,-0.1104431,-0.6627502,25.36812,-26.23587,38.30056,94.87284,94.52982,10,0.0.0.0,10.139.104.221,1,0
2013-11-11 16:49:36.583,305,30.5,52.17032,4.457459,0,1.863264,304.614,14.89407,10,1384184953,0.8702698,-0.133667,-0.6100616,28.17622,-18.39426,41.68823,93.97781,93.63478,10,0.0.0.0,10.139.104.221,1,0
2013-11-11 16:49:36.710,306,30.6,52.17032,4.457459,0,1.863264,304.614,14.89407,10,1384184953,0.9293518,-0.1321716,-0.6409912,31.64506,-9.784925,42.20499,95.38805,95.04502,10,0.0.0.0,10.139.104.221,1,0
2013-11-11 16:49:36.813,307,30.7,52.17032,4.457459,0,1.863264,304.614,14.89407,10,1384184953,0.9293518,-0.1321716,-0.6409912,35.05883,3.266154,43.00885,96.25713,95.9141,10,0.0.0.0,10.139.104.221,1,0
2013-11-11 16:49:36.921,308,30.8,52.17032,4.457459,0,1.863264,304.614,14.89407,10,1384184953,1.009125,-0.1475525,-0.5452271,32.36085,-5.891535,43.75528,89.81794,89.47491,10,0.0.0.0,10.139.104.221,6,0
2013-11-11 16:49:37.151,309,30.9,52.17032,4.457459,0,1.863264,304.614,14.89407,10,1384184953,1.009125,-0.1475525,-0.5452271,24.81751,-27.3326,40.13794,92.35352,92.01049,10,0.0.0.0,10.139.104.221,6,0
2013-11-11 16:49:37.235,310,31,52.17032,4.457459,0,1.863264,304.614,14.89407,10,1384184953,1.055801,-0.01776123,-0.7858429,26.19403,-28.26482,40.08052,93.11211,92.76909,10,0.0.0.0,10.139.104.221,6,0
2013-11-11 16:49:37.336,311,31.1,52.17032,4.457459,0,1.863264,304.614,14.89407,10,1384184953,1.055801,-0.01776123,-0.7858429,29.0572,-20.47804,42.03274,92.09638,91.75336,10,0.0.0.0,10.139.104.221,6,0
2013-11-11 16:49:37.446,312,31.2,52.17032,4.457459,0,1.863264,304.614,14.89407,10,1384184953,0.9738007,0.05055237,-0.8681335,34.78353,-2.382003,42.95143,95.25784,94.91482,10,0.0.0.0,10.139.104.221,6,0
2013-11-11 16:49:37.543,313,31.3,52.17032,4.457459,0,1.863264,304.614,14.89407,10,1384184953,0.8479919,0.08149719,-0.7470245,33.1317,-2.491674,43.52561,92.48952,92.1465,10,0.0.0.0,10.139.104.221,6,0
2013-11-11 16:49:37.655,314,31.4,52.17034,4.457389,0,2.097243,298.8252,14.82204,10,1384184954,0.7973633,0.0566864,-0.576767,32.08554,-7.0431,43.58303,92.30214,91.95911,10,0.0.0.0,10.139.104.221,6,0
2013-11-11 16:49:37.753,315,31.5,52.17034,4.457389,0,2.097243,298.8252,14.82204,10,1384184954,0.8968201,0.006958008,-0.4516296,27.35031,-21.08124,42.66434,89.70281,89.35979,10,0.0.0.0,10.139.104.221,6,0
2013-11-11 16:49:37.871,316,31.6,52.17034,4.457389,0,2.097243,298.8252,14.82204,10,1384184954,0.9753723,-0.01341248,-0.4795074,25.03775,-26.89391,39.44893,92.44597,92.10294,10,0.0.0.0,10.139.104.221,6,0
2013-11-11 16:49:37.969,317,31.7,52.17034,4.457389,0,2.097243,298.8252,14.82204,10,1384184954,0.950058,-0.01547241,-0.5457916,26.46934,-24.91979,39.21925,93.69048,93.34745,10,0.0.0.0,10.139.104.221,6,0
2013-11-11 16:49:38.193,318,31.8,52.17034,4.457389,0,2.097243,298.8252,14.82204,10,1384184954,0.950058,-0.01547241,-0.5457916,35.49932,3.375822,42.5495,93.98877,93.64574,10,0.0.0.0,10.139.104.221,6,0
2013-11-11 16:49:38.353,319,31.9,52.17034,4.457389,0,2.097243,298.8252,14.82204,10,1384184954,0.7541656,0.03781128,-0.5973358,30.76408,-8.797871,43.69786,90.39613,90.0531,10,0.0.0.0,10.139.104.221,6,0
2013-11-11 16:49:38.477,320,32,52.17034,4.457389,0,2.097243,298.8252,14.82204,10,1384184954,0.6910095,0.008895874,-0.5838776,27.57055,-17.46204,43.35336,88.19637,87.85335,10,0.0.0.0,10.139.104.221,6,0
2013-11-11 16:49:38.563,321,32.1,52.17034,4.457389,0,2.097243,298.8252,14.82204,10,1384184954,0.6228027,-0.01272583,-0.5305328,24.81751,-25.90686,40.13794,89.39432,89.05129,10,0.0.0.0,10.139.104.221,6,0
2013-11-11 16:49:38.686,322,32.2,52.17036,4.457272,0,2.442409,290.5979,54.35156,50,1384184955,0.5379791,-0.05647278,-0.4781799,25.09282,-26.40038,38.93216,90.69309,90.35007,10,0.0.0.0,10.139.104.221,6,0
2013-11-11 16:49:38.770,323,32.3,52.17036,4.457272,0,2.442409,290.5979,54.35156,50,1384184955,0.5080566,-0.08026123,-0.4723969,26.74464,-24.31659,40.3102,90.69806,90.35503,10,0.0.0.0,10.139.104.221,6,0
2013-11-11 16:49:38.869,324,32.4,52.17036,4.457272,0,2.442409,290.5979,54.35156,50,1384184955,0.5022583,-0.07719421,-0.4694977,29.27744,-19.38131,42.49208,91.394,91.05097,10,0.0.0.0,10.139.104.221,6,0
2013-11-11 16:49:38.991,325,32.5,52.17036,4.457272,0,2.442409,290.5979,54.35156,50,1384184955,0.5344238,-0.0662384,-0.4849854,33.57219,-6.878591,44.21463,92.61781,92.27478,10,0.0.0.0,10.139.104.221,6,0
2013-11-11 16:49:39.188,326,32.6,52.17036,4.457272,0,2.442409,290.5979,54.35156,50,1384184955,0.5735168,-0.06535339,-0.5159912,32.19567,-3.64324,44.15722,92.12128,91.77825,10,0.0.0.0,10.139.104.221,6,0
2013-11-11 16:49:39.285,327,32.7,52.17036,4.457272,0,2.442409,290.5979,54.35156,50,1384184955,0.620697,-0.0430603,-0.5431366,27.51549,-16.09112,43.41077,88.24055,87.89753,10,0.0.0.0,10.139.104.221,6,0
2013-11-11 16:49:39.416,328,32.8,52.17036,4.457272,0,2.442409,290.5979,54.35156,50,1384184955,0.7221985,-0.0716095,-0.5582275,25.14788,-25.24881,41.86049,90.39048,90.04745,10,0.0.0.0,10.139.104.221,6,0
2013-11-11 16:49:39.549,329,32.9,52.17036,4.457272,0,2.442409,290.5979,54.35156,50,1384184955,0.8013306,-0.1192932,-0.5772552,25.97379,-27.05842,40.19536,90.67023,90.32721,10,0.0.0.0,10.139.104.221,6,0
2013-11-11 16:49:39.858,330,33,52.17036,4.457272,0,2.442409,290.5979,54.35156,50,1384184955,0.8013306,-0.1192932,-0.5772552,27.18513,-25.63267,40.3102,91.14191,90.79888,10,0.0.0.0,10.139.104.221,6,0
2013-11-11 16:49:39.981,331,33.1,52.17036,4.457272,0,2.442409,290.5979,54.35156,50,1384184955,0.8656006,-0.1403046,-0.5983734,32.69122,-1.50462,43.29594,91.72487,91.38184,10,0.0.0.0,10.139.104.221,6,0
2013-11-11 16:49:40.198,332,33.2,52.17036,4.457147,0,2.8077,283.1793,61.01759,50,1384184956,0.8656006,-0.1403046,-0.5983734,28.56165,-14.61054,41.05663,88.17048,87.82745,10,0.0.0.0,10.139.104.221,6,0
2013-11-11 16:49:40.303,333,33.3,52.17036,4.457147,0,2.8077,283.1793,61.01759,50,1384184956,0.876358,-0.1531982,-0.5963593,25.64342,-24.3166,37.55413,92.97989,92.63686,10,0.0.0.0,10.139.104.221,6,0
2013-11-11 16:49:40.426,334,33.4,52.17036,4.457147,0,2.8077,283.1793,61.01759,50,1384184956,0.9399414,-0.183075,-0.6271667,24.54221,-28.81319,36.29093,98.93935,98.59632,10,0.0.0.0,10.139.104.221,6,0
2013-11-11 16:49:40.512,335,33.5,52.17036,4.457147,0,2.8077,283.1793,61.01759,50,1384184956,0.9399414,-0.183075,-0.6271667,26.96489,-24.09725,39.39151,99.50332,99.16029,10,0.0.0.0,10.139.104.221,6,0
2013-11-11 16:49:40.686,336,33.6,52.17036,4.457147,0,2.8077,283.1793,61.01759,50,1384184956,0.8858337,-0.1243134,-0.7326965,39.1884,0.9081864,47.08554,97.71438,97.37135,10,0.0.0.0,10.139.104.221,6,0
2013-11-11 16:49:40.814,337,33.7,52.17036,4.457147,0,2.8077,283.1793,61.01759,50,1384184956,1.025558,0.1552124,-0.8506775,31.8653,-10.99133,49.32484,92.36038,92.01736,10,0.0.0.0,10.139.104.221,6,0
2013-11-11 16:49:41.141,338,33.8,52.17036,4.457147,0,2.8077,283.1793,61.01759,50,1384184956,1.123703,0.3687744,-0.9034119,26.96489,-28.81319,44.0998,92.74416,92.40114,10,0.0.0.0,10.139.104.221,6,0
2013-11-11 16:49:41.237,339,33.9,52.17036,4.457147,0,2.8077,283.1793,61.01759,50,1384184956,1.035538,0.3782806,-0.802536,28.23129,-27.99064,43.58303,93.577,93.23398,10,0.0.0.0,10.139.104.221,6,0
2013-11-11 16:49:41.358,340,34,52.17036,4.457147,0,2.8077,283.1793,61.01759,50,1384184956,0.932724,0.3430328,-0.6013184,29.0572,-22.23281,45.36299,91.20296,90.85994,10,0.0.0.0,10.139.104.221,6,0
2013-11-11 16:49:41.435,341,34.1,52.17036,4.457147,0,2.8077,283.1793,61.01759,50,1384184956,0.8983612,0.3215027,-0.4641266,31.59,-14.44603,45.01849,90.63134,90.28831,10,0.0.0.0,10.139.104.221,6,0
2013-11-11 16:49:41.537,342,34.2,52.17036,4.456997,0,3.218608,275.8254,17.15191,10,1384184957,0.9697571,0.2322083,-0.4548645,36.6556,7.159541,45.36299,90.78083,90.43781,10,0.0.0.0,10.139.104.221,6,0
2013-11-11 16:49:41.655,343,34.3,52.17036,4.456997,0,3.218608,275.8254,17.15191,10,1384184957,0.9697571,0.2322083,-0.4548645,36.10499,4.308044,44.55914,89.92016,89.57713,10,0.0.0.0,10.139.104.221,6,0
2013-11-11 16:49:41.774,344,34.4,52.17036,4.456997,0,3.218608,275.8254,17.15191,10,1384184957,0.8906403,0.4181366,-0.7107239,29.77299,-13.07511,45.0759,86.40664,86.06361,10,0.0.0.0,10.139.104.221,6,0
2013-11-11 16:49:41.851,345,34.5,52.17036,4.456997,0,3.218608,275.8254,17.15191,10,1384184957,0.8906403,0.4181366,-0.7107239,27.68068,-25.79718,40.71212,91.99115,91.64812,10,0.0.0.0,10.139.104.221,6,0
2013-11-11 16:49:42.065,346,34.6,52.17036,4.456997,0,3.218608,275.8254,17.15191,10,1384184957,0.6964264,0.3540649,-0.5496979,30.3236,-19.2168,42.43467,92.68818,92.34515,10,0.0.0.0,10.139.104.221,6,0
2013-11-11 16:49:42.238,347,34.7,52.17036,4.456997,0,3.218608,275.8254,17.15191,10,1384184957,0.5984955,0.2362213,-0.3940125,34.78353,-4.904483,43.98496,94.64356,94.30054,10,0.0.0.0,10.139.104.221,6,0
2013-11-11 16:49:42.338,348,34.8,52.17036,4.456997,0,3.218608,275.8254,17.15191,10,1384184957,0.6093445,0.1185303,-0.30896,37.97706,5.185421,44.21463,96.25881,95.91579,10,0.0.0.0,10.139.104.221,6,0
2013-11-11 16:49:42.529,349,34.9,52.17036,4.456997,0,3.218608,275.8254,17.15191,10,1384184957,0.5717316,0.1632385,-0.4192505,37.42645,5.075749,43.98496,94.75806,94.41503,10,0.0.0.0,10.139.104.221,6,0
2013-11-11 16:49:42.644,350,35,52.17036,4.456997,0,3.218608,275.8254,17.15191,10,1384184957,0.5085754,0.111084,-0.4923859,31.31469,-9.126889,44.50172,90.99575,90.65273,10,0.0.0.0,10.139.104.221,6,0
2013-11-11 16:49:42.732,351,35.1,52.17036,4.456997,0,3.218608,275.8254,17.15191,10,1384184957,0.3132935,0.3331604,-0.6787109,28.28634,-19.82,43.06627,92.21645,91.87342,10,0.0.0.0,10.139.104.221,6,0
2013-11-11 16:49:42.846,352,35.2,52.17037,4.456848,0,3.613037,272.7623,16.5102,10,1384184958,0.2428436,0.6121521,-1.000015,27.51549,-22.34248,42.03274,92.55138,92.20835,10,0.0.0.0,10.139.104.221,6,0
2013-11-11 16:49:42.937,353,35.3,52.17037,4.456848,0,3.613037,272.7623,16.5102,10,1384184958,0.003677368,0.9213715,-1.376587,27.51549,-24.42627,41.5734,93.46442,93.12139,10,0.0.0.0,10.139.104.221,6,0
2013-11-11 16:49:43.152,354,35.4,52.17037,4.456848,0,3.613037,272.7623,16.5102,10,1384184958,0.003677368,0.9213715,-1.376587,31.09445,-18.22974,42.09016,95.39424,95.05122,10,0.0.0.0,10.139.104.221,6,0
2013-11-11 16:49:43.253,355,35.5,52.17037,4.456848,0,3.613037,272.7623,16.5102,10,1384184958,0.04185486,0.7914429,-1.392654,33.79243,-8.194671,43.64045,93.46421,93.12119,10,0.0.0.0,10.139.104.221,6,0
2013-11-11 16:49:43.419,356,35.6,52.17037,4.456848,0,3.613037,272.7623,16.5102,10,1384184958,0.167984,0.6197205,-1.302139,36.76572,1.675895,43.52561,96.54315,96.20013,10,0.0.0.0,10.139.104.221,6,0
2013-11-11 16:49:43.518,357,35.7,52.17037,4.456848,0,3.613037,272.7623,16.5102,10,1384184958,0.1200256,0.5634918,-1.141525,35.22401,1.675895,46.05201,96.56767,96.22464,10,0.0.0.0,10.139.104.221,6,0
2013-11-11 16:49:43.659,358,35.8,52.17037,4.456848,0,3.613037,272.7623,16.5102,10,1384184958,0.4608459,0.4010468,-0.8447723,32.41591,-5.398006,45.0759,94.30943,93.9664,10,0.0.0.0,10.139.104.221,6,0
2013-11-11 16:49:43.767,359,35.9,52.17037,4.456848,0,3.613037,272.7623,16.5102,10,1384184958,0.7758942,0.1142578,-0.7405701,28.28634,-18.83294,43.41077,92.21517,91.87215,10,0.0.0.0,10.139.104.221,1,0
2013-11-11 16:49:43.852,360,36,52.17037,4.456848,0,3.613037,272.7623,16.5102,10,1384184958,0.8448639,0.05117798,-0.5415039,25.97379,-27.27777,39.85085,95.72945,95.38642,10,0.0.0.0,10.139.104.221,1,0
2013-11-11 16:49:43.978,361,36.1,52.17037,4.456848,0,3.613037,272.7623,16.5102,10,1384184958,0.8391113,0.06251526,-0.3770294,28.01104,-26.01653,39.79343,97.64577,97.30274,10,0.0.0.0,10.139.104.221,1,0
2013-11-11 16:49:44.435,362,36.2,52.17037,4.456848,0,3.613037,272.7623,16.5102,10,1384184958,0.8097687,-0.002593994,-0.2932587,32.30579,-12.19773,44.04238,95.40995,95.06693,10,0.0.0.0,10.139.104.221,1,0
2013-11-11 16:49:44.566,363,36.3,52.17037,4.456848,0,3.613037,272.7623,16.5102,10,1384184958,0.8222656,-0.009597778,-0.2853851,34.67341,-4.027094,44.55914,96.21551,95.87248,10,0.0.0.0,10.139.104.221,1,0
2013-11-11 16:49:44.694,364,36.4,52.17037,4.456848,0,3.613037,272.7623,16.5102,10,1384184958,0.8620758,-0.03157043,-0.3601532,35.00377,2.333931,46.39652,96.88856,96.54553,10,0.0.0.0,10.139.104.221,1,0
2013-11-11 16:49:44.810,365,36.5,52.17037,4.456699,0,7.347687,273.5218,16.19812,10,1384184959,0.8620758,-0.03157043,-0.3601532,33.90256,1.675895,45.59267,95.29177,94.94875,10,0.0.0.0,10.139.104.221,1,0
2013-11-11 16:49:44.911,366,36.6,52.17037,4.456699,0,7.347687,273.5218,16.19812,10,1384184959,0.8075562,0.0663147,-0.3518677,28.72683,-11.15584,45.13332,91.60954,91.26652,10,0.0.0.0,10.139.104.221,1,0
2013-11-11 16:49:45.070,367,36.7,52.17037,4.456699,0,7.347687,273.5218,16.19812,10,1384184959,0.730484,0.2434692,-0.3828125,24.2669,-24.9198,42.20499,95.16639,94.82336,10,0.0.0.0,10.139.104.221,1,0
2013-11-11 16:49:45.219,368,36.8,52.17037,4.456699,0,7.347687,273.5218,16.19812,10,1384184959,0.6430664,0.4579926,-0.4138794,24.76245,-27.16809,39.62118,96.08547,95.74245,10,0.0.0.0,10.139.104.221,1,0
2013-11-11 16:49:45.388,369,36.9,52.17037,4.456699,0,7.347687,273.5218,16.19812,10,1384184959,0.414505,0.8067932,-0.6016541,32.47097,-9.510746,43.75528,91.91031,91.56728,10,0.0.0.0,10.139.104.221,1,0
2013-11-11 16:49:45.621,370,37,52.17037,4.456699,0,7.347687,273.5218,16.19812,10,1384184959,0.414505,0.8067932,-0.6016541,36.27017,5.130586,44.38689,92.30991,91.96689,10,0.0.0.0,10.139.104.221,1,0
2013-11-11 16:49:45.817,371,37.1,52.17037,4.456699,0,7.347687,273.5218,16.19812,10,1384184959,0.06228638,1.143082,-0.9329987,34.94871,1.401712,44.38689,91.44883,91.1058,10,0.0.0.0,10.139.104.221,1,0
2013-11-11 16:49:45.925,372,37.2,52.17037,4.456699,0,7.347687,273.5218,16.19812,10,1384184959,0.06228638,1.143082,-0.9329987,28.78189,-13.73315,44.27205,88.96979,88.62676,10,0.0.0.0,10.139.104.221,1,0
2013-11-11 16:49:46.229,373,37.3,52.17037,4.456699,0,7.347687,273.5218,16.19812,10,1384184959,0.03004456,1.061356,-0.9660034,27.07501,-24.97464,39.85085,92.48749,92.14446,10,0.0.0.0,10.139.104.221,1,0
2013-11-11 16:49:46.369,374,37.4,52.17037,4.456699,0,7.347687,273.5218,16.19812,10,1384184959,0.05091858,0.9480743,-1.018188,27.7908,-23.49405,40.9418,93.66331,93.32028,10,0.0.0.0,10.139.104.221,1,0
2013-11-11 16:49:46.473,375,37.5,52.17037,4.456699,0,7.347687,273.5218,16.19812,10,1384184959,0.06202698,0.9213562,-1.030731,30.04829,-18.94262,42.49208,93.4673,93.12428,10,0.0.0.0,10.139.104.221,1,0
2013-11-11 16:49:46.567,376,37.6,52.17037,4.456542,0,7.29907,272.4798,15.96625,10,1384184960,0.03471375,0.9091949,-1.030807,30.5989,-15.7621,42.95143,94.80577,94.46275,10,0.0.0.0,10.139.104.221,1,0
2013-11-11 16:49:46.686,377,37.7,52.17037,4.456542,0,7.29907,272.4798,15.96625,10,1384184960,0.002212524,0.8204803,-0.9693604,35.05883,1.292035,44.38689,93.04689,92.70387,10,0.0.0.0,10.139.104.221,1,0
2013-11-11 16:49:46.768,378,37.8,52.17037,4.456542,0,7.29907,272.4798,15.96625,10,1384184960,0.06118774,0.6763611,-0.8899078,34.1228,0.2501469,46.05201,93.68259,93.33956,10,0.0.0.0,10.139.104.221,1,0
2013-11-11 16:49:46.867,379,37.9,52.17037,4.456542,0,7.29907,272.4798,15.96625,10,1384184960,0.06118774,0.6763611,-0.8899078,28.45153,-17.02334,43.69786,91.28197,90.93894,10,0.0.0.0,10.139.104.221,1,0
2013-11-11 16:49:46.983,380,38,52.17037,4.456542,0,7.29907,272.4798,15.96625,10,1384184960,0.2267914,0.4963989,-0.8654175,26.02885,-26.67456,39.90827,96.10956,95.76653,10,0.0.0.0,10.139.104.221,1,0
2013-11-11 16:49:47.237,381,38.1,52.17037,4.456542,0,7.29907,272.4798,15.96625,10,1384184960,0.2267914,0.4963989,-0.8654175,28.45153,-18.55876,42.5495,95.7009,95.35787,10,0.0.0.0,10.139.104.221,1,0
2013-11-11 16:49:47.381,382,38.2,52.17037,4.456542,0,7.29907,272.4798,15.96625,10,1384184960,0.2781067,0.5001678,-0.8778687,36.32523,1.675895,44.21463,95.96528,95.62225,10,0.0.0.0,10.139.104.221,1,0
2013-11-11 16:49:47.468,383,38.3,52.17037,4.456542,0,7.29907,272.4798,15.96625,10,1384184960,0.2781067,0.5001678,-0.8778687,35.77462,5.295099,44.44431,95.72592,95.3829,10,0.0.0.0,10.139.104.221,1,0
2013-11-11 16:49:47.580,384,38.4,52.17037,4.456542,0,7.29907,272.4798,15.96625,10,1384184960,0.2990417,0.4969177,-0.8670807,32.8564,-0.6820726,45.42041,93.53909,93.19607,10,0.0.0.0,10.139.104.221,1,0
2013-11-11 16:49:47.687,385,38.5,52.17038,4.456389,0,6.86687,274.6766,15.874,10,1384184961,0.3533783,0.4937592,-0.8804932,26.19403,-22.56183,43.64045,93.23134,92.88831,10,0.0.0.0,10.139.104.221,1,0
2013-11-11 16:49:47.783,386,38.6,52.17038,4.456389,0,6.86687,274.6766,15.874,10,1384184961,0.3989563,0.5023804,-0.907608,25.86367,-24.53593,41.9179,95.76441,95.42139,10,0.0.0.0,10.139.104.221,1,0
2013-11-11 16:49:47.913,387,38.7,52.17038,4.456389,0,6.86687,274.6766,15.874,10,1384184961,0.4163818,0.5323029,-0.9124756,28.01104,-20.20385,42.77917,95.18171,94.83868,10,0.0.0.0,10.139.104.221,1,0
2013-11-11 16:49:48.101,388,38.8,52.17038,4.456389,0,6.86687,274.6766,15.874,10,1384184961,0.4071655,0.555191,-0.8853149,37.09608,4.527388,42.95143,93.51424,93.17121,10,0.0.0.0,10.139.104.221,1,0
2013-11-11 16:49:48.258,389,38.9,52.17038,4.456389,0,6.86687,274.6766,15.874,10,1384184961,0.4297485,0.5599213,-0.8531036,36.38029,6.446662,44.96107,92.22687,91.88384,10,0.0.0.0,10.139.104.221,1,0
2013-11-11 16:49:48.334,390,39,52.17038,4.456389,0,6.86687,274.6766,15.874,10,1384184961,0.4297485,0.5599213,-0.8531036,33.8475,-0.1337075,44.84623,88.6635,88.32047,10,0.0.0.0,10.139.104.221,1,0
2013-11-11 16:49:48.445,391,39.1,52.17038,4.456389,0,6.86687,274.6766,15.874,10,1384184961,0.42453,0.5254211,-0.7878113,26.13897,-22.06829,42.43467,93.72672,93.3837,10,0.0.0.0,10.139.104.221,1,0
2013-11-11 16:49:48.528,392,39.2,52.17038,4.456389,0,6.86687,274.6766,15.874,10,1384184961,0.42453,0.5254211,-0.7878113,25.31306,-27.05841,39.39151,96.67078,96.32775,10,0.0.0.0,10.139.104.221,1,0
2013-11-11 16:49:48.632,393,39.3,52.17038,4.456389,0,6.86687,274.6766,15.874,10,1384184961,0.4315491,0.5058746,-0.7731323,26.68958,-23.82307,41.74565,95.73492,95.39189,10,0.0.0.0,10.139.104.221,1,0
2013-11-11 16:49:48.736,394,39.4,52.17038,4.456389,0,6.86687,274.6766,15.874,10,1384184961,0.4290619,0.4874725,-0.760437,30.76408,-14.93956,44.38689,96.3918,96.04877,10,0.0.0.0,10.139.104.221,1,0
2013-11-11 16:49:48.821,395,39.5,52.17038,4.456389,0,6.86687,274.6766,15.874,10,1384184961,0.4140625,0.4751587,-0.748764,33.79243,-5.2335,43.52561,96.0092,95.66618,10,0.0.0.0,10.139.104.221,1,0
2013-11-11 16:49:48.930,396,39.6,52.17038,4.456389,0,6.86687,274.6766,15.874,10,1384184961,0.3955994,0.4538422,-0.7692261,35.22401,2.991968,43.75528,94.77786,94.43484,10,0.0.0.0,10.139.104.221,1,0
2013-11-11 16:49:49.120,397,39.7,52.17038,4.456315,0,3.989619,283.7263,15.99988,10,1384184962,0.3783569,0.4208221,-0.7857666,35.49932,5.788622,45.53525,96.5487,96.20567,10,0.0.0.0,10.139.104.221,1,0
2013-11-11 16:49:49.263,398,39.8,52.17038,4.456315,0,3.989619,283.7263,15.99988,10,1384184962,0.3783569,0.4208221,-0.7857666,30.87421,-5.398009,46.79845,92.74639,92.40337,10,0.0.0.0,10.139.104.221,1,0
2013-11-11 16:49:49.370,399,39.9,52.17038,4.456315,0,3.989619,283.7263,15.99988,10,1384184962,0.3312531,0.4021454,-0.7907715,24.76245,-20.80706,43.75528,94.52773,94.18471,10,0.0.0.0,10.139.104.221,1,0
2013-11-11 16:49:49.511,400,40,52.17038,4.456315,0,3.989619,283.7263,15.99988,10,1384184962,0.3286438,0.441925,-0.8298187,23.33087,-27.71645,40.3102,97.11291,96.76988,10,0.0.0.0,10.139.104.221,1,0
2013-11-11 16:49:49.639,401,40.1,52.17038,4.456315,0,3.989619,283.7263,15.99988,10,1384184962,0.3286438,0.441925,-0.8298187,23.71629,-26.45522,41.28631,96.65418,96.31116,10,0.0.0.0,10.139.104.221,1,0
2013-11-11 16:49:49.721,402,40.2,52.17038,4.456315,0,3.989619,283.7263,15.99988,10,1384184962,0.3171234,0.5423279,-0.8846588,26.35921,-19.98452,43.00885,94.3604,94.01737,10,0.0.0.0,10.139.104.221,1,0
2013-11-11 16:49:49.897,403,40.3,52.17038,4.456315,0,3.989619,283.7263,15.99988,10,1384184962,0.3041534,0.5297852,-0.8953857,35.9398,4.691898,45.19074,94.95113,94.6081,10,0.0.0.0,10.139.104.221,1,0
2013-11-11 16:49:50.193,404,40.4,52.17038,4.456315,0,3.989619,283.7263,15.99988,10,1384184962,0.2941132,0.4179993,-0.8513031,29.00214,-10.55264,45.87976,89.64533,89.30231,10,0.0.0.0,10.139.104.221,1,0
2013-11-11 16:49:50.317,405,40.5,52.17038,4.456315,0,3.989619,283.7263,15.99988,10,1384184962,0.3077545,0.3572998,-0.8325958,25.58836,-21.30059,44.38689,91.89469,91.55167,10,0.0.0.0,10.139.104.221,1,0
2013-11-11 16:49:50.508,406,40.6,52.17039,4.45626,0,3.989619,277.41,16.34216,10,1384184963,0.2905121,0.3765259,-0.9047852,25.64342,-24.86496,41.34372,94.0891,93.74608,10,0.0.0.0,10.139.104.221,6,0
2013-11-11 16:49:50.613,407,40.7,52.17039,4.45626,0,3.989619,277.41,16.34216,10,1384184963,0.2815247,0.3579559,-0.926178,33.35194,-7.426958,44.78881,94.90928,94.56625,10,0.0.0.0,10.139.104.221,6,0
2013-11-11 16:49:50.718,408,40.8,52.17039,4.45626,0,3.989619,277.41,16.34216,10,1384184963,0.2701111,0.3105469,-0.8988342,35.22401,4.088698,46.39652,95.98689,95.64386,10,0.0.0.0,10.139.104.221,1,0
2013-11-11 16:49:50.888,409,40.9,52.17039,4.45626,0,3.989619,277.41,16.34216,10,1384184963,0.1835938,0.2121277,-0.8375702,35.27908,1.730731,45.53525,95.35993,95.01691,10,0.0.0.0,10.139.104.221,1,0
2013-11-11 16:49:51.181,410,41,52.17039,4.45626,0,3.989619,277.41,16.34216,10,1384184963,0.1835938,0.2121277,-0.8375702,27.13007,-14.17185,44.73139,93.29501,92.95198,10,0.0.0.0,10.139.104.221,1,0
2013-11-11 16:49:51.272,411,41.1,52.17039,4.45626,0,3.989619,277.41,16.34216,10,1384184963,0.2006073,0.276535,-0.9214172,25.20294,-17.51687,45.01849,94.23808,93.89506,10,0.0.0.0,10.139.104.221,1,0
2013-11-11 16:49:51.374,412,41.2,52.17039,4.45626,0,3.989619,277.41,16.34216,10,1384184963,0.2006073,0.276535,-0.9214172,23.82642,-19.65549,45.65009,92.51399,92.17097,10,0.0.0.0,10.139.104.221,1,0
2013-11-11 16:49:51.452,413,41.3,52.17039,4.45626,0,3.989619,277.41,16.34216,10,1384184963,0.2051849,0.3365784,-0.9731293,23.71629,-18.44909,45.0759,90.57748,90.23445,10,0.0.0.0,10.139.104.221,1,0
2013-11-11 16:49:51.550,414,41.4,52.17039,4.45626,0,3.989619,277.41,16.34216,10,1384184963,0.2219696,0.402298,-1.016083,24.98269,-18.17491,45.93718,89.64637,89.30334,10,0.0.0.0,10.139.104.221,1,0
2013-11-11 16:49:51.653,415,41.5,52.17039,4.45626,0,3.989619,277.41,16.34216,10,1384184963,0.2240143,0.4431152,-1.036636,25.58836,-18.77811,44.84623,88.56089,88.21786,10,0.0.0.0,10.139.104.221,1,0
2013-11-11 16:49:52.037,416,41.6,52.1704,4.456203,0,4.11295,287.5425,16.56487,10,1384184964,0.2098694,0.4450378,-1.074661,25.03775,-20.75223,44.38689,89.28957,88.94654,10,0.0.0.0,10.139.104.221,1,0
2013-11-11 16:49:52.300,417,41.7,52.1704,4.456203,0,4.11295,287.5425,16.56487,10,1384184964,0.2150879,0.3870544,-1.096893,23.77135,-20.91673,44.21463,86.73931,86.39629,10,0.0.0.0,10.139.104.221,1,0
2013-11-11 16:49:52.897,418,41.8,52.1704,4.456203,0,4.11295,287.5425,16.56487,10,1384184964,-0.04460144,0.3819733,-1.25853,23.66123,-23.43921,43.64045,86.54025,86.19723,10,0.0.0.0,10.139.104.221,6,0
2013-11-11 16:49:53.231,419,41.9,52.1704,4.456203,0,4.11295,287.5425,16.56487,10,1384184964,-0.2417145,0.3433228,-1.428604,26.35921,-20.8619,43.81271,82.09575,81.75272,10,0.0.0.0,10.139.104.221,6,0
2013-11-11 16:49:53.700,420,42,52.1704,4.456203,0,4.11295,287.5425,16.56487,10,1384184964,-0.4762878,0.4611969,-1.662521,28.23129,-15.48792,44.73139,82.56739,82.22437,10,0.0.0.0,10.139.104.221,1,0
2013-11-11 16:49:54.228,421,42.1,52.17042,4.456168,0,3.769703,291.9021,16.69119,10,1384184965,-0.7107544,0.6750641,-1.764282,29.77299,-13.29446,44.38689,79.66269,79.31966,10,0.0.0.0,10.139.104.221,1,0
2013-11-11 16:49:54.476,422,42.2,52.17042,4.456168,0,3.769703,291.9021,16.69119,10,1384184965,-0.5145416,0.6492157,-1.706009,29.55274,-13.29446,43.23852,78.59043,78.24741,10,0.0.0.0,10.139.104.221,1,0
2013-11-11 16:49:54.588,423,42.3,52.17042,4.456168,0,3.769703,291.9021,16.69119,10,1384184965,-0.5145416,0.6492157,-1.706009,29.60781,-13.56864,43.98496,79.25053,78.90751,10,0.0.0.0,10.139.104.221,1,0
2013-11-11 16:49:54.788,424,42.4,52.17042,4.456168,0,3.769703,291.9021,16.69119,10,1384184965,0.08410645,0.7383575,-1.00972,28.56165,-13.9525,45.30557,77.55885,77.21582,10,0.0.0.0,10.139.104.221,6,0
2013-11-11 16:49:54.997,425,42.5,52.17042,4.456168,0,3.769703,291.9021,16.69119,10,1384184965,0.693924,0.580368,-0.494812,26.13897,-15.04923,44.84623,77.62302,77.28,10,0.0.0.0,10.139.104.221,6,0
2013-11-11 16:49:55.248,426,42.6,52.17042,4.456168,0,3.769703,291.9021,16.69119,10,1384184965,0.693924,0.580368,-0.494812,25.97379,-16.2008,45.13332,76.13542,75.7924,10,0.0.0.0,10.139.104.221,6,0
2013-11-11 16:49:55.392,427,42.7,52.17042,4.456168,0,3.769703,291.9021,16.69119,10,1384184965,0.8734436,0.4026642,-0.4060364,25.69848,-16.804,44.84623,76.73969,76.39667,10,0.0.0.0,10.139.104.221,6,0
2013-11-11 16:49:55.918,428,42.8,52.17042,4.456168,0,3.769703,291.9021,16.69119,10,1384184965,1.135681,0.3896637,-0.2910461,29.60781,-11.26551,43.64045,70.00172,69.6587,10,0.0.0.0,10.139.104.221,6,0
2013-11-11 16:49:56.177,429,42.9,52.17043,4.456126,0,3.769703,286.2285,16.76211,10,1384184966,1.135681,0.3896637,-0.2910461,29.60781,-12.69126,44.90365,67.92873,67.58571,10,0.0.0.0,10.139.104.221,6,0
2013-11-11 16:49:56.304,430,43,52.17043,4.456126,0,3.769703,286.2285,16.76211,10,1384184966,1.374268,0.2919617,-0.4144897,29.99323,-11.64937,44.04238,63.88113,63.5381,10,0.0.0.0,10.139.104.221,1,0
2013-11-11 16:49:56.470,431,43.1,52.17043,4.456126,0,3.769703,286.2285,16.76211,10,1384184966,1.256287,0.3223114,-0.3439484,30.98433,-11.21067,43.58303,62.45338,62.11036,10,0.0.0.0,10.139.104.221,1,0
2013-11-11 16:49:56.588,432,43.2,52.17043,4.456126,0,3.769703,286.2285,16.76211,10,1384184966,0.8416138,0.190155,-0.09111023,31.31469,-10.99133,43.92754,62.2838,61.94077,10,0.0.0.0,10.139.104.221,1,0
2013-11-11 16:49:56.782,433,43.3,52.17043,4.456126,0,3.769703,286.2285,16.76211,10,1384184966,0.304184,0.5005798,-0.3364716,31.59,-11.81387,44.0998,66.49296,66.14993,10,0.0.0.0,10.139.104.221,1,0
2013-11-11 16:49:57.017,434,43.4,52.17043,4.456126,0,3.769703,286.2285,16.76211,10,1384184966,0.02374268,0.3143616,-0.691452,31.97542,-10.99133,44.96107,63.86731,63.52428,10,0.0.0.0,10.139.104.221,1,0
2013-11-11 16:49:57.203,435,43.5,52.17043,4.456126,0,3.769703,286.2285,16.76211,10,1384184966,-0.1855011,0.3185272,-0.9094238,32.03048,-10.4978,45.7075,61.88217,61.53914,10,0.0.0.0,10.139.104.221,1,0
2013-11-11 16:49:57.328,436,43.6,52.17043,4.456126,0,3.769703,286.2285,16.76211,10,1384184966,-0.8087769,0.2753143,-1.441376,32.03048,-10.38813,45.7075,59.80265,59.45963,10,0.0.0.0,10.139.104.221,1,0
2013-11-11 16:49:57.431,437,43.7,52.17043,4.456126,0,3.769703,286.2285,16.76211,10,1384184966,-1.092941,0.1496277,-1.483047,31.47988,-10.05911,47.08554,58.90819,58.56516,10,0.0.0.0,10.139.104.221,1,0
2013-11-11 16:49:57.542,438,43.8,52.17044,4.456076,0,4.006262,285.0553,16.79339,10,1384184967,-1.072433,0.06781006,-1.406815,31.20457,-10.00427,47.71714,58.69088,58.34785,10,0.0.0.0,10.139.104.221,1,0
2013-11-11 16:49:57.664,439,43.9,52.17044,4.456076,0,4.006262,285.0553,16.79339,10,1384184967,-0.8495789,0.004089355,-1.374619,30.81915,-9.510743,47.08554,58.39242,58.04939,10,0.0.0.0,10.139.104.221,1,0
2013-11-11 16:49:57.760,440,44,52.17044,4.456076,0,4.006262,285.0553,16.79339,10,1384184967,-0.5720825,-0.03634644,-1.346161,30.3236,-9.346232,47.71714,54.90222,54.55919,10,0.0.0.0,10.139.104.221,1,0
2013-11-11 16:49:57.861,441,44.1,52.17044,4.456076,0,4.006262,285.0553,16.79339,10,1384184967,-0.3996887,-0.05979919,-1.289948,29.38756,-8.084992,47.31521,52.97057,52.62754,10,0.0.0.0,10.139.104.221,1,0
2013-11-11 16:49:57.958,442,44.2,52.17044,4.456076,0,4.006262,285.0553,16.79339,10,1384184967,-0.2644958,-0.06738281,-1.07518,28.17622,-7.646302,47.20037,52.30003,51.957,10,0.0.0.0,10.139.104.221,1,0
2013-11-11 16:49:58.168,443,44.3,52.17044,4.456076,0,4.006262,285.0553,16.79339,10,1384184967,-0.245224,-0.01316833,-0.9808197,23.88148,-7.317284,48.11906,46.4309,46.08787,10,0.0.0.0,10.139.104.221,1,0
2013-11-11 16:49:58.259,444,44.4,52.17044,4.456076,0,4.006262,285.0553,16.79339,10,1384184967,-0.1622009,0.01173401,-0.959137,24.48714,-7.70114,48.29132,48.18193,47.8389,10,0.0.0.0,10.139.104.221,1,0
2013-11-11 16:49:58.355,445,44.5,52.17044,4.456076,0,4.006262,285.0553,16.79339,10,1384184967,-0.07980347,0.02575684,-0.9539795,25.20294,-6.549575,48.57841,48.10147,47.75844,10,0.0.0.0,10.139.104.221,1,0
2013-11-11 16:49:58.471,446,44.6,52.17044,4.456076,0,4.006262,285.0553,16.79339,10,1384184967,0.0171051,0.02963257,-0.9623871,24.04666,-6.385065,48.75066,42.97989,42.63686,10,0.0.0.0,10.139.104.221,1,0
2013-11-11 16:49:58.576,447,44.7,52.17044,4.456076,0,4.006262,285.0553,16.79339,10,1384184967,0.01383972,0.04544067,-0.9507446,22.44989,-8.523685,47.54488,41.2818,40.93877,10,0.0.0.0,10.139.104.221,1,0
2013-11-11 16:49:58.675,448,44.8,52.17044,4.456076,0,4.006262,285.0553,16.79339,10,1384184967,0.004837036,0.06518555,-0.9469452,20.743,-13.40414,47.02812,46.45965,46.11662,10,0.0.0.0,10.139.104.221,1,0
2013-11-11 16:49:58.774,449,44.9,52.17044,4.456076,0,4.006262,285.0553,16.79339,10,1384184967,-0.01060486,0.08094788,-0.9704132,19.31142,-15.81694,47.02812,43.83664,43.49361,10,0.0.0.0,10.139.104.221,1,0
2013-11-11 16:49:58.877,450,45,52.17044,4.456076,0,0,285.0553,16.74148,10,1384184968,0.0007629395,0.08638,-0.9908142,18.59563,-16.09112,48.2339,41.64577,41.30274,10,0.0.0.0,10.139.104.221,1,0
2013-11-11 16:49:58.953,451,45.1,52.17044,4.456076,0,0,285.0553,16.74148,10,1384184968,0.02946472,0.1303101,-1.041443,16.6685,-16.47498,48.29132,37.27512,36.93209,10,0.0.0.0,10.139.104.221,1,0
2013-11-11 16:49:59.155,452,45.2,52.17044,4.456076,0,0,285.0553,16.74148,10,1384184968,0.05493164,0.1984406,-1.126236,16.94381,-17.51687,46.62619,37.14925,36.80622,10,0.0.0.0,10.139.104.221,1,0
2013-11-11 16:49:59.254,453,45.3,52.17044,4.456076,0,0,285.0553,16.74148,10,1384184968,0.1271667,0.1691284,-1.182358,18.926,-17.18785,46.62619,33.6772,33.33418,10,0.0.0.0,10.139.104.221,1,0
2013-11-11 16:49:59.392,454,45.4,52.17044,4.456076,0,0,285.0553,16.74148,10,1384184968,0.1899261,0.08390808,-1.175064,21.95435,-14.82988,47.6023,26.45584,26.11281,10,0.0.0.0,10.139.104.221,1,0
2013-11-11 16:49:59.555,455,45.5,52.17044,4.456076,0,0,285.0553,16.74148,10,1384184968,0.1513214,0.03901672,-1.035873,23.71629,-8.030159,48.06165,16.31421,15.97118,10,0.0.0.0,10.139.104.221,1,0
2013-11-11 16:49:59.669,456,45.6,52.17044,4.456076,0,0,285.0553,16.74148,10,1384184968,0.1276855,0.02049255,-0.9736023,25.03775,-3.972256,47.14296,14.45926,14.11623,10,0.0.0.0,10.139.104.221,1,0
2013-11-11 16:49:59.769,457,45.7,52.17044,4.456076,0,0,285.0553,16.74148,10,1384184968,0.1276855,0.02049255,-0.9736023,25.86367,-1.504616,46.9707,12.68965,12.34663,10,0.0.0.0,10.139.104.221,1,0
2013-11-11 16:49:59.869,458,45.8,52.17044,4.456076,0,0,285.0553,16.74148,10,1384184968,0.1897278,-0.04000854,-0.9381561,26.96489,0.3598216,47.54488,10.9891,10.64607,10,0.0.0.0,10.139.104.221,1,0
2013-11-11 16:50:00.225,459,45.9,52.17044,4.456076,0,0,285.0553,16.74148,10,1384184968,0.1897278,-0.04000854,-0.9381561,26.41428,-0.07886839,45.82234,7.469679,7.12665,10,0.0.0.0,10.139.104.221,1,0
2013-11-11 16:50:00.515,460,46,52.17044,4.456076,0,0,285.0553,16.74148,10,1384184968,0.1634521,-0.05603027,-0.9323883,25.14788,-3.752912,46.56877,1.306212,0.9631828,10,0.0.0.0,10.139.104.221,1,0
2013-11-11 16:50:00.669,461,46.1,52.17044,4.456076,0,0,285.0553,16.74148,10,1384184968,0.07847595,-0.04164124,-0.9307861,23.66123,-4.685134,46.9707,354.9287,354.5857,10,0.0.0.0,10.139.104.221,1,0
2013-11-11 16:50:00.790,462,46.2,52.17044,4.456076,0,0,285.0553,17.25482,10,1384184969,0.03907776,-0.01579285,-0.9699707,21.12843,-6.4399,48.11906,351.165,350.822,10,0.0.0.0,10.139.104.221,1,0
2013-11-11 16:50:00.884,463,46.3,52.17044,4.456076,0,0,285.0553,17.25482,10,1384184969,0.03907776,-0.01579285,-0.9699707,17.9349,-7.317284,48.34874,344.9023,344.5593,10,0.0.0.0,10.139.104.221,1,0
2013-11-11 16:50:00.985,464,46.4,52.17044,4.456076,0,0,285.0553,17.25482,10,1384184969,0.02124023,0.02705383,-1.02272,15.01668,-9.346232,48.52099,339.0933,338.7503,10,0.0.0.0,10.139.104.221,1,0
2013-11-11 16:50:01.188,465,46.5,52.17044,4.456076,0,0,285.0553,17.25482,10,1384184969,0.01275635,0.02801514,-1.044174,11.65796,-10.71715,49.4971,331.5782,331.2352,10,0.0.0.0,10.139.104.221,1,0
2013-11-11 16:50:01.385,466,46.6,52.17044,4.456076,0,0,285.0553,17.25482,10,1384184969,0.03985596,-0.03787231,-1.033203,4.444988,-19.32648,45.87976,313.5029,313.1599,10,0.0.0.0,10.139.104.221,1,0
2013-11-11 16:50:01.590,467,46.7,52.17044,4.456076,0,0,285.0553,17.25482,10,1384184969,0.05036926,0.005722046,-1.048828,-1.171219,-27.44228,41.74565,290.9115,290.5685,10,0.0.0.0,10.139.104.221,1,0
2013-11-11 16:50:01.687,468,46.8,52.17044,4.456076,0,0,285.0553,17.25482,10,1384184969,0.05036926,0.005722046,-1.048828,-1.942074,-27.77129,41.05663,285.9457,285.6027,10,0.0.0.0,10.139.104.221,1,0
2013-11-11 16:50:01.788,469,46.9,52.17044,4.456076,0,0,285.0553,17.25482,10,1384184969,0.05723572,-0.002319336,-1.05658,0.04011917,-24.04242,43.81271,279.6754,279.3324,10,0.0.0.0,10.139.104.221,1,0
2013-11-11 16:50:01.886,470,47,52.17044,4.456076,0,0,285.0553,17.25482,10,1384184969,0.04165649,0.01083374,-1.041092,1.691948,-17.90073,45.76492,278.575,278.232,10,0.0.0.0,10.139.104.221,1,0
2013-11-11 16:50:01.970,471,47.1,52.17044,4.456076,0,0,285.0553,17.25482,10,1384184969,0.01411438,0.001022339,-1.00029,2.242554,-10.66231,48.17648,275.3301,274.9871,10,0.0.0.0,10.139.104.221,1,0
2013-11-11 16:50:02.251,472,47.2,52.17044,4.456076,0,0,285.0553,57,30,1384184970,0.007446289,0.0002593994,-0.9915466,2.297615,1.127533,50.30095,275.132,274.7889,10,0.0.0.0,10.139.104.221,1,0
2013-11-11 16:50:02.354,473,47.3,52.17044,4.456076,0,0,285.0553,57,30,1384184970,0.02754211,-0.003158569,-1.000244,1.36158,4.472549,49.21001,273.4962,273.1531,10,0.0.0.0,10.139.104.221,1,0
2013-11-11 16:50:02.458,474,47.4,52.17044,4.456076,0,0,285.0553,57,30,1384184970,0.09089661,-0.02139282,-1.04277,0.8660316,3.211312,50.07128,268.4725,268.1295,10,0.0.0.0,10.139.104.221,1,0
2013-11-11 16:50:02.554,475,47.5,52.17044,4.456076,0,0,285.0553,57,30,1384184970,0.1183624,-0.002990723,-1.105988,0.04011917,0.9630225,49.78419,267.0429,266.6999,10,0.0.0.0,10.139.104.221,1,0
2013-11-11 16:50:02.654,476,47.6,52.17044,4.456076,0,0,285.0553,57,30,1384184970,0.1135712,0.04849243,-1.150925,-1.281342,-0.7917409,50.35837,269.6707,269.3276,10,0.0.0.0,10.139.104.221,1,0
2013-11-11 16:50:02.749,477,47.7,52.17044,4.456076,0,0,285.0553,57,30,1384184970,0.09460449,0.0927124,-1.167679,-3.924263,-2.656182,48.40616,266.8753,266.5323,10,0.0.0.0,10.139.104.221,1,0
2013-11-11 16:50:02.868,478,47.8,52.17044,4.456076,0,0,285.0553,57,30,1384184970,0.09460449,0.0927124,-1.167679,-3.979321,-6.330228,48.46357,265.7939,265.4509,10,0.0.0.0,10.139.104.221,1,0
2013-11-11 16:50:02.962,479,47.9,52.17044,4.456076,0,0,285.0553,57,30,1384184970,0.05683899,0.05638123,-1.050888,-4.805237,-9.565582,47.14296,265.2738,264.9308,10,0.0.0.0,10.139.104.221,1,0
2013-11-11 16:50:03.137,480,48,52.17044,4.456076,0,0,285.0553,57,30,1384184970,0.05683899,0.05638123,-1.050888,-5.300785,-12.36224,46.39652,268.2784,267.9354,10,0.0.0.0,10.139.104.221,1,0
2013-11-11 16:50:03.262,481,48.1,52.17044,4.456076,0,0,285.0553,57,30,1384184970,0.05215454,0.03855896,-0.9778442,-6.291882,-16.52982,43.98496,269.4639,269.1209,10,0.0.0.0,10.139.104.221,1,0
2013-11-11 16:50:03.370,482,48.2,52.17044,4.456076,0,0,285.0553,57,30,1384184970,0.07987976,0.07513428,-0.9807587,-7.448162,-17.79105,42.43467,271.5729,271.2299,10,0.0.0.0,10.139.104.221,1,0
2013-11-11 16:50:03.469,483,48.3,52.17044,4.456076,0,0,285.0553,57,30,1384184970,0.1349487,0.1275024,-1.010849,-9.320232,-19.32648,42.5495,272.8224,272.4794,10,0.0.0.0,10.139.104.221,1,0
2013-11-11 16:50:03.567,484,48.4,52.17044,4.456076,0,0,285.0553,18.3843,10,1384184971,0.1655426,0.1648712,-1.026413,-10.86193,-20.31353,42.09016,271.3752,271.0322,10,0.0.0.0,10.139.104.221,1,0
2013-11-11 16:50:03.688,485,48.5,52.17044,4.456076,0,0,285.0553,18.3843,10,1384184971,0.168396,0.1620331,-1.010803,-12.51376,-21.30059,41.74565,272.945,272.602,10,0.0.0.0,10.139.104.221,1,0
2013-11-11 16:50:03.772,486,48.6,52.17044,4.456076,0,0,285.0553,18.3843,10,1384184971,0.168396,0.1620331,-1.010803,-13.55992,-22.56183,39.96569,271.4376,271.0945,10,0.0.0.0,10.139.104.221,1,0
2013-11-11 16:50:03.876,487,48.7,52.17044,4.456076,0,0,285.0553,18.3843,10,1384184971,0.1479645,0.1296539,-0.9601898,-13.7251,-22.39732,39.21925,268.4371,268.0941,10,0.0.0.0,10.139.104.221,1,0
2013-11-11 16:50:03.974,488,48.8,52.17044,4.456076,0,0,285.0553,18.3843,10,1384184971,0.08929443,0.05921936,-0.8813629,-12.40364,-21.08125,40.25278,267.0619,266.7189,10,0.0.0.0,10.139.104.221,1,0
2013-11-11 16:50:04.183,489,48.9,52.17044,4.456076,0,0,285.0553,18.3843,10,1384184971,0.06175232,0.009246826,-0.8482361,-11.4676,-17.84589,43.29594,268.1114,267.7683,10,0.0.0.0,10.139.104.221,1,0
2013-11-11 16:50:04.265,490,49,52.17044,4.456076,0,0,285.0553,18.3843,10,1384184971,0.04577637,0.004501343,-0.8677826,-10.64169,-17.68138,42.77917,264.2609,263.9178,10,0.0.0.0,10.139.104.221,1,0
2013-11-11 16:50:04.387,491,49.1,52.17044,4.456076,0,0,285.0553,18.3843,10,1384184971,0.04165649,0.03140259,-0.929184,-9.54047,-16.3653,42.89401,263.42,263.0769,10,0.0.0.0,10.139.104.221,1,0
2013-11-11 16:50:04.521,492,49.2,52.17044,4.456076,0,0,285.0553,18.3843,10,1384184971,0.06762695,0.06951904,-0.9788513,-7.723461,-14.99439,43.64045,263.4681,263.1251,10,0.0.0.0,10.139.104.221,1,0
2013-11-11 16:50:04.636,493,49.3,52.17044,4.456076,0,0,285.0553,18.3843,10,1384184971,0.08610535,0.1020355,-1.018768,-5.741272,-13.78799,44.0998,261.1284,260.7854,10,0.0.0.0,10.139.104.221,1,0
2013-11-11 16:50:04.787,494,49.4,52.17044,4.456076,0,0,285.0553,18.3843,10,1384184971,0.1101074,0.1357117,-1.022659,-4.695118,-10.88166,44.84623,258.0193,257.6763,10,0.0.0.0,10.139.104.221,1,0
2013-11-11 16:50:04.884,495,49.5,52.17044,4.456076,0,0,285.0553,18.3843,10,1384184971,0.1101074,0.1357117,-1.022659,-4.695118,-8.139831,45.53525,260.1176,259.7745,10,0.0.0.0,10.139.104.221,1,0
2013-11-11 16:50:04.966,496,49.6,52.17044,4.456076,0,0,285.0553,18.3843,10,1384184971,0.1805115,0.1221008,-0.9687805,-4.089443,-2.382,47.20037,258.3022,257.9592,10,0.0.0.0,10.139.104.221,1,0
2013-11-11 16:50:05.147,497,49.7,52.17044,4.456076,0,0,285.0553,18.3843,10,1384184971,0.1805115,0.1221008,-0.9687805,-4.034386,1.182369,50.93255,256.3817,256.0387,10,0.0.0.0,10.139.104.221,1,0
2013-11-11 16:50:05.324,498,49.8,52.17044,4.456076,0,0,285.0553,18.67789,10,1384184972,0.1959076,0.1083832,-0.9385223,-5.741272,0.7985115,50.18612,257.1613,256.8182,10,0.0.0.0,10.139.104.221,1,0
2013-11-11 16:50:05.501,499,49.9,52.17044,4.456076,0,0,285.0553,18.67789,10,1384184972,0.2052612,0.1131744,-0.9306946,-7.172855,-1.723966,50.53062,256.0367,255.6937,10,0.0.0.0,10.139.104.221,1,0
2013-11-11 16:50:05.702,500,50,52.17044,4.456076,0,0,285.0553,18.67789,10,1384184972,0.1909485,0.1602478,-0.9425659,-9.815769,-14.11701,45.7075,254.7757,254.4326,10,0.0.0.0,10.139.104.221,1,0
2013-11-11 16:50:05.892,501,50.1,52.17044,4.456076,0,0,285.0553,18.67789,10,1384184972,0.1999054,0.1873169,-0.9552612,-11.63279,-24.59078,41.17147,251.5704,251.2274,10,0.0.0.0,10.139.104.221,1,0
2013-11-11 16:50:06.161,502,50.2,52.17044,4.456076,0,0,285.0553,18.67789,10,1384184972,0.2077484,0.1764832,-0.9483795,-12.01821,-30.67763,37.89863,248.2566,247.9136,10,0.0.0.0,10.139.104.221,1,0
2013-11-11 16:50:06.330,503,50.3,52.17044,4.456076,0,0,285.0553,18.67789,10,1384184972,0.2220001,0.1752625,-0.9415131,-8.879742,-28.9777,39.90827,247.6924,247.3494,10,0.0.0.0,10.139.104.221,1,0
2013-11-11 16:50:06.446,504,50.4,52.17044,4.456076,0,0,285.0553,18.67789,10,1384184972,0.2428894,0.1767883,-0.9443512,-6.787426,-23.82307,43.46819,251.2782,250.9351,10,0.0.0.0,10.139.104.221,1,0
2013-11-11 16:50:06.542,505,50.5,52.17044,4.456076,0,0,285.0553,18.67789,10,1384184972,0.2547607,0.1961823,-0.9355927,-5.245724,-21.73928,45.65009,251.9102,251.5672,10,0.0.0.0,10.139.104.221,1,0
2013-11-11 16:50:06.642,506,50.6,52.17044,4.456076,0,0,285.0553,18.67789,10,1384184972,0.2785492,0.1957245,-0.9335632,-1.446526,-17.18785,47.77456,253.7671,253.424,10,0.0.0.0,10.139.104.221,1,0
2013-11-11 16:50:06.745,507,50.7,52.17039,4.456194,0,0,285.0553,18.91674,10,1384184973,0.3105774,0.1667023,-0.9372559,1.416641,-10.4978,49.72677,258.3251,257.9821,10,0.0.0.0,10.139.104.221,1,0
2013-11-11 16:50:06.834,508,50.8,52.17039,4.456194,0,0,285.0553,18.91674,10,1384184973,0.342392,0.1494141,-0.9419403,1.857128,-6.878591,52.13834,256.9669,256.6239,10,0.0.0.0,10.139.104.221,1,0
2013-11-11 16:50:06.944,509,50.9,52.17039,4.456194,0,0,285.0553,18.91674,10,1384184973,0.3528442,0.1529694,-0.9584656,1.636883,-2.930365,53.86088,258.371,258.028,10,0.0.0.0,10.139.104.221,1,0
2013-11-11 16:50:07.122,510,51,52.17039,4.456194,0,0,285.0553,18.91674,10,1384184973,0.3528442,0.1529694,-0.9584656,1.471703,2.827457,55.64084,260.5118,260.1688,10,0.0.0.0,10.139.104.221,1,0
2013-11-11 16:50:07.229,511,51.1,52.17039,4.456194,0,0,285.0553,18.91674,10,1384184973,0.3599243,0.1847076,-1.000381,0.04011917,2.717786,55.41117,262.3443,262.0013,10,0.0.0.0,10.139.104.221,1,0
2013-11-11 16:50:07.321,512,51.2,52.17039,4.456194,0,0,285.0553,18.91674,10,1384184973,0.3599243,0.1847076,-1.000381,-2.272438,-1.44978,53.57379,264.6397,264.2967,10,0.0.0.0,10.139.104.221,1,0
